time_sec,ax,ay,az,gx,gy,gz,temp_c
0.013,-0.041000,-0.573000,0.700000,-34.260000,2.344000,15.267000,29.000000
0.019,-0.083000,-0.585000,0.700000,-37.450000,3.939000,21.405000,29.050000
0.031,-0.159000,-0.574000,0.695000,-36.679000,2.229000,28.374000,28.950000
0.038,-0.213000,-0.572000,0.648000,-36.832000,-4.504000,32.382000,29.050000
0.050,-0.250000,-0.573000,0.607000,-37.427000,-20.977000,34.244000,29.090000
0.062,-0.269000,-0.567000,0.552000,-43.344000,-38.534000,32.969000,29.050000
0.068,-0.236000,-0.625000,0.466000,-38.992000,-53.397000,29.229000,29.050000
0.084,-0.140000,-0.619000,0.435000,-48.748000,-55.069000,22.710000,28.910000
0.094,-0.054000,-0.646000,0.457000,-45.725000,-29.977000,10.702000,28.910000
0.100,0.054000,-0.668000,0.443000,-45.527000,-6.511000,0.695000,29.090000
0.112,0.033000,-0.691000,0.447000,-41.557000,13.290000,-1.176000,28.950000
0.119,0.004000,-0.708000,0.438000,-32.634000,13.176000,5.046000,29.050000
0.131,-0.040000,-0.689000,0.422000,-28.344000,5.763000,8.534000,29.000000
0.138,-0.078000,-0.680000,0.438000,-25.450000,2.901000,6.656000,29.000000
0.151,-0.094000,-0.717000,0.412000,-20.031000,-0.885000,5.557000,29.050000
0.163,-0.087000,-0.744000,0.402000,-13.908000,-9.924000,6.817000,29.050000
0.170,-0.073000,-0.736000,0.407000,-10.702000,-18.832000,9.229000,29.000000
0.182,-0.024000,-0.695000,0.454000,-21.718000,-16.321000,10.038000,29.000000
0.189,-0.090000,-0.650000,0.470000,-36.046000,-21.885000,16.069000,29.140000
0.201,-0.184000,-0.647000,0.458000,-57.305000,-48.328000,31.153000,28.950000
0.213,-0.150000,-0.721000,0.419000,-70.359000,-63.542000,41.763000,28.950000
0.219,-0.012000,-0.816000,0.437000,-68.710000,-61.221000,46.847000,29.000000
0.232,0.120000,-0.899000,0.492000,-54.588000,-44.748000,46.237000,29.050000
0.239,0.166000,-0.942000,0.484000,-39.115000,-22.687000,41.626000,29.050000
0.251,0.109000,-0.925000,0.482000,-24.924000,-14.107000,37.237000,29.090000
0.263,-0.016000,-0.941000,0.453000,-16.672000,-14.130000,31.992000,29.000000
0.269,-0.062000,-0.947000,0.449000,-6.870000,-25.053000,30.519000,29.000000
0.282,-0.085000,-0.897000,0.462000,-3.099000,-35.420000,28.244000,29.050000
0.288,-0.038000,-0.848000,0.522000,0.366000,-36.947000,23.580000,29.050000
0.301,-0.016000,-0.825000,0.570000,0.733000,-41.405000,22.084000,29.090000
0.308,-0.009000,-0.801000,0.596000,-0.458000,-50.977000,26.802000,29.090000
0.320,0.006000,-0.806000,0.563000,-0.359000,-58.489000,32.962000,29.140000
0.333,0.007000,-0.828000,0.544000,0.321000,-62.160000,39.641000,29.050000
0.341,0.060000,-0.825000,0.529000,-3.412000,-55.595000,40.679000,29.090000
0.351,0.115000,-0.804000,0.588000,-14.534000,-21.893000,28.511000,29.000000
0.358,0.042000,-0.813000,0.596000,-15.053000,-3.626000,19.527000,29.050000
0.371,-0.001000,-0.845000,0.602000,-10.847000,-2.412000,17.458000,29.050000
0.383,-0.041000,-0.814000,0.596000,-10.336000,-1.802000,14.733000,29.050000
0.390,-0.068000,-0.819000,0.587000,-10.122000,-0.305000,12.412000,29.090000
0.402,-0.088000,-0.831000,0.555000,-9.076000,-15.145000,17.298000,29.000000
0.408,-0.068000,-0.836000,0.549000,-9.824000,-17.618000,18.779000,29.050000
0.420,-0.056000,-0.861000,0.534000,-10.084000,-19.221000,21.023000,29.050000
0.433,-0.065000,-0.914000,0.533000,-6.931000,-20.656000,22.015000,29.090000
0.441,-0.061000,-0.930000,0.552000,-1.977000,-14.244000,17.252000,29.090000
0.452,-0.101000,-0.949000,0.564000,0.817000,-7.634000,10.214000,29.050000
0.459,-0.159000,-0.955000,0.556000,0.137000,-1.336000,2.130000,29.050000
0.474,-0.210000,-0.933000,0.565000,-0.069000,-4.084000,-1.878000,29.000000
0.478,-0.206000,-0.918000,0.568000,-4.160000,-14.603000,-5.229000,29.000000
0.491,-0.141000,-0.924000,0.588000,-7.244000,-20.038000,-8.809000,29.190000
0.502,-0.053000,-0.931000,0.619000,-7.733000,-21.641000,-13.649000,29.050000
0.509,0.050000,-0.971000,0.645000,-3.664000,-18.656000,-16.107000,29.050000
0.521,0.136000,-1.004000,0.662000,1.794000,-12.824000,-15.733000,29.090000
0.529,0.165000,-0.995000,0.673000,7.153000,-8.649000,-14.092000,29.000000
0.541,0.130000,-0.968000,0.689000,9.374000,-7.489000,-9.328000,29.050000
0.548,0.063000,-0.942000,0.648000,8.107000,-18.092000,0.145000,29.050000
0.560,-0.014000,-0.915000,0.659000,1.893000,-24.412000,3.634000,28.950000
0.573,-0.015000,-0.898000,0.651000,-4.137000,-22.740000,1.038000,29.090000
0.580,-0.011000,-0.888000,0.663000,-8.756000,-17.481000,-4.626000,29.000000
0.592,-0.002000,-0.892000,0.683000,-7.580000,-13.153000,-10.275000,29.050000
0.598,0.064000,-0.904000,0.680000,-6.710000,-6.641000,-13.901000,29.140000
0.611,0.074000,-0.869000,0.692000,-8.405000,3.160000,-17.076000,29.000000
0.623,0.065000,-0.820000,0.658000,-17.649000,6.626000,-14.534000,29.000000
0.630,-0.004000,-0.802000,0.592000,-32.015000,7.580000,-7.969000,28.950000
0.642,-0.056000,-0.831000,0.532000,-42.656000,-2.580000,2.817000,29.050000
0.649,-0.041000,-0.879000,0.489000,-51.137000,-8.595000,11.053000,29.000000
0.661,-0.062000,-0.943000,0.441000,-52.840000,-11.115000,13.802000,29.000000
0.668,-0.020000,-0.984000,0.409000,-44.336000,-7.893000,10.084000,29.050000
0.681,0.013000,-1.009000,0.400000,-32.122000,-1.290000,2.511000,29.140000
0.693,0.025000,-1.014000,0.392000,-18.908000,10.565000,-5.496000,29.140000
0.699,0.010000,-1.000000,0.383000,-5.962000,21.038000,-11.611000,29.000000
0.711,-0.035000,-0.958000,0.379000,-0.290000,25.099000,-15.779000,29.090000
0.718,-0.106000,-0.924000,0.375000,-0.779000,24.336000,-19.214000,28.950000
0.731,-0.215000,-0.877000,0.387000,-3.702000,11.389000,-19.496000,29.050000
0.743,-0.215000,-0.828000,0.445000,-10.634000,1.046000,-20.443000,29.050000
0.749,-0.155000,-0.813000,0.503000,-20.641000,-7.321000,-21.771000,29.090000
0.761,-0.045000,-0.819000,0.569000,-23.122000,-18.351000,-15.328000,29.140000
0.768,0.033000,-0.821000,0.591000,-22.008000,-32.344000,-5.496000,29.140000
0.781,0.049000,-0.869000,0.582000,-23.885000,-26.244000,-3.565000,29.000000
0.793,0.046000,-0.920000,0.546000,-24.611000,-21.489000,-2.802000,29.000000
0.799,0.037000,-0.965000,0.513000,-22.366000,-19.076000,-1.969000,29.050000
0.812,0.103000,-0.971000,0.481000,-15.458000,-11.893000,-2.092000,29.140000
0.818,0.150000,-0.942000,0.475000,-6.221000,2.214000,-4.962000,29.050000
0.831,0.126000,-0.908000,0.472000,-1.863000,20.847000,-10.550000,29.090000
0.838,0.041000,-0.890000,0.447000,-1.679000,30.267000,-12.435000,29.090000
0.850,-0.054000,-0.851000,0.442000,-1.130000,26.756000,-11.901000,29.050000
0.862,-0.095000,-0.799000,0.460000,-5.198000,15.969000,-7.168000,29.140000
0.869,-0.086000,-0.761000,0.477000,-12.916000,-1.084000,1.672000,29.090000
0.882,-0.087000,-0.762000,0.469000,-23.053000,-16.687000,10.840000,29.090000
0.889,-0.027000,-0.820000,0.461000,-25.977000,-28.809000,20.198000,29.050000
0.900,0.031000,-0.836000,0.478000,-22.542000,-30.763000,24.336000,29.050000
0.912,0.060000,-0.839000,0.492000,-17.321000,-16.191000,20.321000,29.050000
0.919,0.046000,-0.856000,0.500000,-10.000000,-3.962000,15.137000,29.090000
0.933,0.004000,-0.856000,0.506000,-4.878000,5.794000,9.023000,28.950000
0.940,-0.033000,-0.842000,0.489000,-1.710000,16.214000,1.458000,29.140000
0.951,-0.060000,-0.841000,0.483000,-0.053000,23.176000,-6.687000,28.950000
0.958,-0.066000,-0.879000,0.461000,0.802000,26.206000,-14.908000,29.000000
0.970,0.053000,-0.912000,0.444000,11.076000,29.916000,-22.290000,29.190000
0.984,0.100000,-0.874000,0.485000,16.924000,31.748000,-24.321000,29.050000
0.989,0.069000,-0.870000,0.475000,16.924000,29.038000,-18.000000,29.140000
1.002,0.016000,-0.808000,0.491000,8.313000,16.595000,-6.679000,29.090000
1.009,-0.044000,-0.790000,0.486000,-6.084000,1.954000,5.863000,29.090000
1.021,-0.093000,-0.805000,0.480000,-20.481000,-8.038000,13.672000,29.050000
1.028,-0.149000,-0.847000,0.436000,-25.389000,-31.992000,22.198000,29.140000
1.040,-0.129000,-0.871000,0.423000,-27.313000,-42.099000,19.160000,29.090000
1.052,-0.053000,-0.902000,0.406000,-25.550000,-40.511000,10.504000,29.090000
1.059,-0.010000,-0.921000,0.398000,-18.756000,-37.969000,3.198000,29.000000
1.071,0.033000,-0.932000,0.420000,-13.328000,-37.557000,-1.641000,29.050000
1.078,0.079000,-0.939000,0.415000,-8.794000,-33.427000,-0.511000,29.050000
1.091,0.064000,-0.958000,0.444000,-9.191000,-37.084000,1.748000,29.050000
1.102,0.055000,-0.983000,0.394000,-13.183000,-36.542000,6.611000,29.090000
1.109,0.058000,-1.001000,0.356000,-15.382000,-36.130000,12.275000,29.140000
1.121,0.109000,-1.015000,0.333000,-14.817000,-39.962000,17.496000,29.140000
1.128,0.127000,-1.006000,0.366000,-10.046000,-40.450000,23.183000,29.190000
1.141,0.143000,-0.955000,0.395000,-2.985000,-46.672000,28.817000,29.090000
1.153,0.102000,-0.904000,0.428000,1.221000,-38.847000,27.832000,29.090000
1.160,0.058000,-0.879000,0.441000,3.740000,-26.542000,21.756000,29.050000
1.173,0.005000,-0.877000,0.427000,4.656000,-18.885000,16.458000,29.140000
1.180,-0.008000,-0.869000,0.390000,4.000000,-13.977000,11.656000,29.000000
1.192,-0.030000,-0.880000,0.398000,8.282000,-17.260000,11.527000,29.090000
1.198,-0.031000,-0.847000,0.388000,6.282000,-24.802000,14.115000,29.050000
1.211,-0.009000,-0.839000,0.419000,3.679000,-35.229000,19.168000,29.050000
1.223,0.049000,-0.826000,0.437000,0.275000,-40.939000,25.389000,29.000000
1.234,0.094000,-0.848000,0.432000,-3.015000,-46.122000,30.748000,29.090000
1.243,0.099000,-0.853000,0.431000,-1.389000,-44.183000,34.000000,29.050000
1.250,0.092000,-0.833000,0.437000,0.931000,-34.351000,32.351000,29.050000
1.261,0.046000,-0.812000,0.423000,5.634000,-26.389000,27.115000,29.050000
1.268,0.002000,-0.806000,0.402000,8.992000,-21.351000,21.542000,29.090000
1.281,0.008000,-0.805000,0.405000,12.275000,-16.153000,16.267000,29.000000
1.293,-0.013000,-0.819000,0.400000,12.420000,-17.015000,16.084000,29.140000
1.299,-0.050000,-0.855000,0.396000,9.748000,-25.084000,21.473000,29.050000
1.312,-0.086000,-0.847000,0.392000,5.489000,-39.672000,28.588000,29.090000
1.319,-0.074000,-0.846000,0.415000,1.649000,-46.137000,31.344000,29.090000
1.331,-0.015000,-0.849000,0.421000,1.527000,-45.145000,30.473000,29.050000
1.339,0.031000,-0.824000,0.443000,4.908000,-36.260000,25.351000,29.050000
1.350,0.045000,-0.797000,0.447000,8.870000,-21.061000,16.740000,29.090000
1.363,0.020000,-0.784000,0.459000,12.695000,-12.198000,11.069000,29.090000
1.369,-0.019000,-0.796000,0.452000,14.718000,-10.305000,8.664000,29.050000
1.382,-0.054000,-0.818000,0.439000,14.855000,-14.015000,7.702000,29.140000
1.389,-0.077000,-0.816000,0.405000,13.237000,-19.573000,7.160000,29.140000
1.401,-0.092000,-0.811000,0.394000,11.198000,-27.206000,7.931000,29.090000
1.408,-0.047000,-0.835000,0.382000,12.137000,-34.504000,8.053000,29.090000
1.420,0.024000,-0.828000,0.410000,16.214000,-33.802000,6.580000,29.050000
1.433,0.055000,-0.795000,0.460000,17.618000,-28.252000,5.550000,29.050000
1.440,0.050000,-0.774000,0.489000,16.931000,-22.893000,4.221000,29.140000
1.452,-0.028000,-0.782000,0.480000,12.786000,-26.168000,4.076000,29.090000
1.459,-0.071000,-0.826000,0.425000,10.832000,-43.939000,7.069000,29.140000
1.471,-0.117000,-0.858000,0.373000,7.664000,-60.122000,7.489000,29.050000
1.478,-0.139000,-0.873000,0.318000,6.267000,-70.817000,5.725000,29.090000
1.491,-0.110000,-0.873000,0.294000,2.153000,-72.969000,1.427000,29.090000
1.503,-0.049000,-0.895000,0.285000,6.023000,-67.794000,-2.702000,29.090000
1.509,0.039000,-0.891000,0.306000,16.656000,-61.176000,-5.504000,29.050000
1.524,0.117000,-0.898000,0.361000,28.763000,-54.298000,-3.786000,29.050000
1.529,0.132000,-0.873000,0.432000,34.878000,-44.786000,-1.718000,29.090000
1.541,0.129000,-0.881000,0.426000,42.550000,-44.038000,-1.870000,29.000000
1.548,0.064000,-0.834000,0.476000,42.267000,-40.344000,-1.069000,29.050000
1.560,0.013000,-0.816000,0.494000,40.191000,-37.740000,-1.061000,28.950000
1.573,-0.009000,-0.783000,0.492000,33.466000,-40.473000,-1.427000,29.090000
1.580,0.034000,-0.755000,0.514000,29.931000,-41.168000,-0.985000,29.090000
1.592,0.094000,-0.745000,0.558000,26.740000,-45.847000,3.374000,29.050000
1.598,0.180000,-0.754000,0.566000,26.908000,-44.809000,4.802000,29.050000
1.611,0.224000,-0.745000,0.605000,25.267000,-35.748000,6.809000,29.140000
1.618,0.220000,-0.722000,0.608000,22.557000,-24.244000,8.405000,29.090000
1.630,0.237000,-0.723000,0.634000,20.672000,-17.061000,9.107000,29.190000
1.643,0.209000,-0.737000,0.618000,14.305000,-9.718000,10.687000,29.050000
1.649,0.186000,-0.744000,0.590000,12.046000,-15.351000,12.771000,29.140000
1.662,0.159000,-0.752000,0.552000,6.260000,-13.496000,13.534000,29.190000
1.669,0.177000,-0.765000,0.543000,6.809000,-11.466000,15.053000,29.000000
1.682,0.178000,-0.774000,0.546000,7.824000,-7.206000,16.786000,29.140000
1.689,0.166000,-0.770000,0.556000,8.099000,-2.160000,17.137000,29.140000
1.700,0.152000,-0.785000,0.555000,10.473000,-1.489000,18.527000,29.090000
1.708,0.129000,-0.782000,0.557000,9.229000,-0.763000,19.931000,29.090000
1.720,0.106000,-0.774000,0.553000,8.771000,1.824000,16.519000,29.190000
1.734,0.093000,-0.773000,0.542000,8.130000,1.847000,15.237000,29.140000
1.741,0.094000,-0.762000,0.538000,6.092000,2.855000,12.145000,29.140000
1.753,0.091000,-0.761000,0.545000,3.397000,1.969000,9.718000,29.090000
1.759,0.074000,-0.758000,0.542000,-0.076000,4.084000,7.740000,29.090000
1.773,0.044000,-0.761000,0.524000,-3.679000,4.282000,2.656000,29.240000
1.780,0.066000,-0.776000,0.496000,-1.847000,3.496000,-4.183000,29.050000
1.792,0.128000,-0.810000,0.467000,2.359000,7.427000,-9.145000,29.140000
1.799,0.134000,-0.827000,0.444000,7.489000,5.748000,-12.779000,29.000000
1.811,0.105000,-0.840000,0.436000,9.679000,2.702000,-14.588000,29.090000
1.818,0.084000,-0.808000,0.444000,10.511000,-0.878000,-15.672000,29.050000
1.831,0.078000,-0.813000,0.451000,13.107000,-4.977000,-14.023000,29.140000
1.843,0.146000,-0.843000,0.471000,19.321000,-8.374000,-10.573000,29.190000
1.849,0.191000,-0.834000,0.483000,24.573000,-7.885000,-5.832000,29.090000
1.862,0.161000,-0.807000,0.478000,28.282000,-10.450000,3.260000,29.140000
1.869,0.143000,-0.779000,0.484000,33.115000,-21.634000,13.107000,29.140000
1.882,0.069000,-0.738000,0.497000,30.183000,-32.496000,22.061000,29.090000
1.889,0.038000,-0.718000,0.540000,24.389000,-34.336000,22.794000,29.190000
1.900,-0.008000,-0.744000,0.526000,19.084000,-38.954000,22.344000,29.240000
1.913,0.011000,-0.732000,0.500000,13.267000,-43.840000,18.969000,29.050000
1.919,0.062000,-0.738000,0.490000,10.107000,-41.534000,12.374000,29.190000
1.932,0.153000,-0.772000,0.500000,24.351000,-40.290000,8.198000,29.190000
1.939,0.244000,-0.744000,0.542000,32.611000,-19.649000,2.580000,29.190000
1.951,0.219000,-0.763000,0.563000,42.656000,-11.397000,4.817000,29.240000
1.958,0.156000,-0.730000,0.561000,49.214000,-11.237000,8.992000,29.140000
1.970,0.049000,-0.666000,0.551000,43.298000,-19.618000,15.878000,29.140000
1.984,-0.013000,-0.684000,0.555000,37.580000,-39.672000,23.145000,29.090000
1.989,0.004000,-0.655000,0.543000,32.191000,-64.962000,32.664000,29.140000
2.002,0.036000,-0.623000,0.574000,19.916000,-71.496000,33.412000,29.240000
2.008,0.097000,-0.662000,0.586000,20.244000,-71.702000,33.092000,29.090000
2.021,0.182000,-0.652000,0.627000,20.916000,-62.931000,30.176000,29.190000
2.028,0.219000,-0.675000,0.646000,18.443000,-42.740000,22.702000,29.140000
2.040,0.235000,-0.711000,0.661000,24.954000,-31.489000,20.504000,29.140000
2.052,0.250000,-0.765000,0.639000,23.702000,-18.405000,16.565000,29.140000
2.059,0.256000,-0.825000,0.577000,19.634000,-11.985000,15.893000,29.190000
2.071,0.279000,-0.894000,0.534000,14.504000,-25.275000,24.168000,29.090000
2.079,0.260000,-0.801000,0.486000,4.084000,-33.160000,28.611000,29.140000
2.092,0.275000,-0.717000,0.529000,6.176000,-21.656000,26.046000,29.140000
2.097,0.290000,-0.706000,0.565000,14.290000,-10.069000,21.679000,29.090000
2.110,0.249000,-0.658000,0.609000,20.000000,13.634000,12.412000,29.090000
2.123,0.142000,-0.655000,0.607000,19.107000,31.206000,-0.863000,29.140000
2.130,0.121000,-0.670000,0.590000,19.237000,42.229000,-13.366000,29.140000
2.142,0.117000,-0.662000,0.557000,21.832000,67.496000,-29.870000,29.140000
2.148,-0.021000,-0.615000,0.530000,26.229000,84.412000,-39.237000,29.190000
2.161,-0.143000,-0.590000,0.503000,26.901000,82.214000,-44.374000,29.240000
2.173,-0.133000,-0.572000,0.533000,25.313000,68.229000,-48.870000,29.140000
2.180,-0.043000,-0.606000,0.609000,25.786000,56.817000,-53.885000,29.090000
2.192,0.047000,-0.629000,0.659000,22.267000,55.954000,-55.107000,29.190000
2.198,0.044000,-0.610000,0.676000,18.153000,58.099000,-53.550000,29.140000
2.211,0.055000,-0.666000,0.647000,12.565000,47.053000,-45.916000,29.050000
2.218,0.097000,-0.666000,0.629000,6.985000,35.366000,-37.939000,29.140000
2.230,0.096000,-0.662000,0.598000,1.191000,15.191000,-27.084000,29.090000
2.243,0.081000,-0.639000,0.586000,-9.565000,3.580000,-15.550000,29.090000
2.249,0.049000,-0.651000,0.530000,-18.458000,-3.153000,-6.427000,29.140000
2.262,0.072000,-0.722000,0.459000,-24.756000,-18.023000,-0.542000,29.140000
2.268,0.151000,-0.751000,0.452000,-24.924000,-27.802000,-0.450000,29.090000
2.281,0.252000,-0.770000,0.444000,-21.244000,-26.840000,-4.977000,29.090000
2.293,0.402000,-0.815000,0.464000,-9.160000,-17.069000,-13.206000,29.140000
2.300,0.492000,-0.816000,0.542000,2.496000,7.611000,-22.969000,29.050000
2.312,0.460000,-0.787000,0.590000,11.145000,34.366000,-30.985000,29.240000
2.319,0.352000,-0.744000,0.611000,13.336000,49.298000,-34.122000,29.190000
2.332,0.236000,-0.710000,0.627000,9.634000,50.855000,-32.962000,29.140000
2.339,0.208000,-0.699000,0.664000,6.397000,43.618000,-29.756000,29.140000
2.351,0.197000,-0.662000,0.641000,1.137000,29.160000,-25.260000,29.090000
2.357,0.236000,-0.651000,0.690000,-0.023000,24.000000,-23.847000,29.090000
2.370,0.249000,-0.603000,0.725000,-2.763000,27.756000,-23.695000,29.140000
2.383,0.198000,-0.580000,0.740000,-5.725000,33.656000,-23.191000,29.140000
2.389,0.177000,-0.610000,0.717000,-10.015000,38.412000,-22.290000,29.140000
2.401,0.208000,-0.646000,0.677000,-13.924000,48.397000,-28.122000,29.190000
2.408,0.202000,-0.650000,0.665000,-16.405000,59.473000,-37.672000,29.190000
2.420,0.155000,-0.670000,0.629000,-14.595000,64.481000,-44.786000,29.140000
2.434,0.137000,-0.623000,0.642000,-13.282000,64.260000,-48.992000,29.140000
2.439,0.099000,-0.568000,0.644000,-16.939000,58.855000,-49.740000,29.190000
2.451,0.091000,-0.516000,0.649000,-22.053000,54.763000,-49.374000,29.190000
2.458,0.087000,-0.504000,0.683000,-27.649000,50.779000,-46.908000,29.140000
2.470,0.075000,-0.517000,0.658000,-35.366000,46.031000,-45.550000,29.050000
2.483,0.160000,-0.581000,0.647000,-32.260000,37.603000,-47.985000,29.140000
2.489,0.239000,-0.574000,0.639000,-36.511000,37.908000,-49.145000,29.190000
2.502,0.233000,-0.539000,0.656000,-34.817000,46.260000,-52.664000,29.050000
2.508,0.245000,-0.562000,0.628000,-36.977000,54.481000,-53.183000,29.140000
2.520,0.230000,-0.590000,0.628000,-37.206000,62.405000,-52.603000,29.090000
2.534,0.191000,-0.657000,0.585000,-38.756000,71.794000,-52.229000,29.190000
2.540,0.201000,-0.708000,0.515000,-32.321000,70.603000,-53.313000,29.140000
2.552,0.199000,-0.742000,0.522000,-27.366000,67.626000,-52.282000,29.050000
2.559,0.174000,-0.782000,0.500000,-23.290000,65.595000,-52.214000,29.240000
2.570,0.152000,-0.765000,0.476000,-22.405000,66.901000,-53.756000,29.090000
2.584,0.118000,-0.648000,0.509000,-21.328000,69.275000,-54.893000,29.090000
2.590,0.084000,-0.633000,0.531000,-21.168000,64.397000,-52.015000,29.140000
2.602,0.093000,-0.701000,0.564000,-21.214000,60.229000,-48.603000,29.240000
2.608,0.079000,-0.770000,0.549000,-21.885000,57.504000,-45.595000,29.090000
2.621,0.060000,-0.772000,0.531000,-22.275000,47.992000,-40.504000,29.190000
2.627,0.066000,-0.721000,0.541000,-27.489000,36.443000,-33.084000,29.240000
2.640,0.102000,-0.661000,0.565000,-29.092000,26.809000,-27.450000,29.140000
2.652,0.127000,-0.553000,0.591000,-36.443000,19.664000,-20.511000,29.140000
2.659,0.104000,-0.482000,0.645000,-46.084000,11.435000,-13.099000,29.190000
2.671,0.064000,-0.595000,0.673000,-47.176000,6.740000,-6.870000,29.140000
2.678,0.090000,-0.628000,0.691000,-52.725000,12.779000,-6.992000,29.240000
2.691,0.040000,-0.716000,0.651000,-52.168000,17.137000,-13.237000,29.190000
2.702,0.065000,-0.800000,0.571000,-52.603000,20.397000,-23.588000,29.090000
2.709,0.131000,-0.865000,0.520000,-47.176000,24.687000,-35.947000,29.190000
2.721,0.188000,-0.877000,0.464000,-40.351000,31.351000,-44.359000,29.140000
2.729,0.224000,-0.915000,0.439000,-32.298000,36.031000,-48.382000,29.140000
2.741,0.233000,-0.924000,0.432000,-23.359000,37.015000,-48.840000,29.190000
2.753,0.221000,-0.955000,0.460000,-16.176000,39.847000,-44.336000,29.090000
2.759,0.197000,-0.991000,0.465000,-11.260000,40.443000,-36.275000,29.140000
2.773,0.197000,-0.973000,0.448000,-10.656000,32.145000,-26.916000,29.240000
2.779,0.185000,-0.885000,0.485000,-8.611000,20.962000,-17.176000,29.190000
2.791,0.196000,-0.808000,0.517000,-13.374000,19.168000,-8.908000,29.090000
2.797,0.146000,-0.725000,0.478000,-22.107000,19.023000,-3.290000,29.140000
2.810,0.105000,-0.748000,0.473000,-29.977000,18.435000,-3.977000,29.240000
2.823,0.076000,-0.892000,0.479000,-26.588000,21.641000,-6.824000,29.140000
2.829,0.093000,-0.979000,0.438000,-21.664000,27.878000,-11.420000,29.190000
2.841,0.070000,-1.016000,0.402000,-16.031000,27.130000,-12.977000,29.090000
2.848,0.086000,-1.006000,0.339000,-11.015000,23.252000,-11.130000,29.140000
2.860,0.104000,-0.963000,0.304000,-6.863000,16.374000,-6.710000,29.240000
2.873,0.101000,-0.884000,0.275000,-3.954000,2.725000,2.557000,29.190000
2.881,0.063000,-0.775000,0.328000,-8.542000,-6.679000,11.015000,29.190000
2.892,0.008000,-0.771000,0.354000,-8.939000,-23.137000,18.053000,29.140000
2.899,-0.031000,-0.795000,0.407000,-12.779000,-38.328000,22.672000,29.140000
2.911,-0.067000,-0.798000,0.439000,-14.725000,-48.588000,23.977000,29.090000
2.917,-0.018000,-0.805000,0.430000,-18.565000,-47.908000,18.183000,29.190000
2.931,0.083000,-0.842000,0.406000,-16.977000,-40.649000,5.618000,29.140000
2.943,0.169000,-0.852000,0.389000,-11.557000,-28.359000,-5.992000,29.240000
2.949,0.233000,-0.869000,0.389000,-3.313000,-18.908000,-12.878000,29.090000
2.961,0.281000,-0.902000,0.400000,4.214000,-12.458000,-15.336000,29.090000
2.968,0.291000,-0.868000,0.430000,8.824000,-4.931000,-16.282000,29.190000
2.981,0.236000,-0.837000,0.488000,8.908000,-2.420000,-12.176000,29.140000
2.993,0.181000,-0.813000,0.507000,1.634000,-3.298000,-6.443000,29.140000
3.000,0.151000,-0.801000,0.492000,-6.771000,-2.115000,-3.344000,29.190000
3.012,0.162000,-0.774000,0.446000,-11.977000,-6.611000,-2.183000,29.190000
3.019,0.170000,-0.811000,0.448000,-14.458000,-3.046000,-4.305000,29.140000
3.032,0.157000,-0.826000,0.443000,-12.298000,-0.252000,-7.519000,29.140000
3.038,0.142000,-0.836000,0.454000,-7.511000,1.756000,-12.412000,29.090000
3.051,0.146000,-0.862000,0.480000,0.115000,6.374000,-15.634000,29.190000
3.058,0.164000,-0.854000,0.494000,5.053000,8.000000,-18.664000,29.140000
3.070,0.124000,-0.828000,0.484000,4.901000,10.038000,-18.817000,29.140000
3.084,0.134000,-0.776000,0.472000,1.275000,9.710000,-18.000000,29.190000
3.090,0.172000,-0.725000,0.469000,-5.313000,11.641000,-17.634000,29.190000
3.102,0.167000,-0.714000,0.471000,-9.992000,14.901000,-17.786000,29.090000
3.109,0.177000,-0.718000,0.478000,-8.977000,17.679000,-20.618000,29.140000
3.121,0.207000,-0.715000,0.512000,-7.763000,19.718000,-24.405000,29.240000
3.129,0.259000,-0.713000,0.557000,-6.435000,23.069000,-25.702000,29.280000
3.141,0.252000,-0.652000,0.595000,-6.336000,29.389000,-27.786000,29.190000
3.152,0.247000,-0.603000,0.604000,-6.748000,30.649000,-29.580000,29.140000
3.159,0.238000,-0.540000,0.611000,-13.252000,34.603000,-31.344000,29.240000
3.171,0.216000,-0.537000,0.599000,-21.321000,37.260000,-33.527000,29.140000
3.179,0.162000,-0.635000,0.576000,-25.069000,35.206000,-35.313000,29.190000
3.192,0.196000,-0.684000,0.552000,-26.107000,39.122000,-37.756000,29.140000
3.203,0.215000,-0.744000,0.530000,-23.954000,41.092000,-39.641000,29.140000
3.209,0.250000,-0.804000,0.510000,-20.244000,42.000000,-39.527000,29.190000
3.223,0.307000,-0.804000,0.522000,-16.183000,49.023000,-41.183000,29.280000
3.228,0.316000,-0.858000,0.517000,-15.481000,50.076000,-37.992000,29.140000
3.241,0.318000,-0.875000,0.517000,-16.863000,48.977000,-31.206000,29.240000
3.253,0.299000,-0.865000,0.478000,-23.473000,45.382000,-22.733000,29.240000
3.259,0.282000,-0.875000,0.431000,-27.695000,42.008000,-14.672000,29.190000
3.273,0.259000,-0.897000,0.377000,-30.634000,40.832000,-9.504000,29.190000
3.279,0.264000,-0.935000,0.346000,-25.000000,37.740000,-8.786000,29.140000
3.292,0.243000,-0.973000,0.343000,-18.099000,38.107000,-8.321000,29.140000
3.298,0.227000,-0.998000,0.354000,-8.046000,35.435000,-8.802000,29.190000
3.310,0.189000,-1.016000,0.363000,-0.588000,26.145000,-8.374000,29.280000
3.323,0.173000,-0.991000,0.383000,2.221000,24.008000,-6.893000,29.240000
3.331,0.174000,-0.944000,0.385000,4.397000,22.145000,-6.145000,29.140000
3.342,0.208000,-0.919000,0.399000,6.893000,21.664000,-3.534000,29.140000
3.349,0.250000,-0.830000,0.421000,8.863000,25.092000,-2.679000,29.190000
3.362,0.207000,-0.836000,0.480000,13.649000,32.656000,-4.321000,29.140000
3.368,0.179000,-0.857000,0.510000,17.260000,39.473000,-9.382000,29.140000
3.381,0.134000,-0.877000,0.532000,19.221000,45.908000,-15.344000,29.240000
3.388,0.137000,-0.905000,0.523000,21.695000,47.336000,-21.504000,29.190000
3.400,0.201000,-0.916000,0.513000,24.534000,48.771000,-27.183000,29.190000
3.412,0.264000,-0.887000,0.527000,26.313000,57.870000,-31.962000,29.240000
3.419,0.321000,-0.850000,0.531000,27.786000,61.557000,-32.244000,29.330000
3.432,0.359000,-0.826000,0.554000,29.160000,65.305000,-29.969000,29.190000
3.439,0.341000,-0.840000,0.595000,27.656000,67.069000,-23.786000,29.280000
3.451,0.310000,-0.839000,0.591000,24.023000,67.779000,-16.641000,29.240000
3.463,0.262000,-0.823000,0.592000,16.809000,65.924000,-10.115000,29.240000
3.470,0.213000,-0.835000,0.550000,8.603000,63.427000,-5.023000,29.280000
3.483,0.219000,-0.841000,0.500000,1.893000,64.298000,-3.015000,29.190000
3.490,0.229000,-0.859000,0.447000,0.046000,67.550000,-0.366000,29.330000
3.502,0.247000,-0.874000,0.377000,2.168000,68.634000,3.802000,29.240000
3.509,0.167000,-0.928000,0.364000,8.107000,65.023000,9.702000,29.240000
3.521,0.081000,-0.938000,0.355000,16.038000,59.901000,13.733000,29.190000
3.529,0.018000,-0.947000,0.377000,22.313000,52.672000,13.916000,29.140000
3.541,0.048000,-0.871000,0.432000,21.237000,43.496000,13.069000,29.330000
3.548,0.147000,-0.863000,0.467000,21.511000,43.969000,8.962000,29.240000
3.560,0.252000,-0.835000,0.484000,18.069000,57.802000,4.099000,29.190000
3.573,0.264000,-0.817000,0.486000,14.893000,74.954000,4.847000,29.190000
3.580,0.199000,-0.798000,0.472000,11.924000,85.008000,9.947000,29.240000
3.593,0.073000,-0.731000,0.485000,5.802000,81.008000,18.595000,29.240000
3.599,-0.048000,-0.668000,0.520000,-11.084000,75.595000,25.802000,29.190000
3.611,-0.163000,-0.741000,0.462000,-20.282000,56.046000,34.626000,29.280000
3.618,-0.156000,-0.724000,0.454000,-32.176000,53.771000,34.748000,29.240000
3.631,-0.197000,-0.799000,0.407000,-33.588000,42.916000,37.580000,29.140000
3.642,-0.217000,-0.793000,0.373000,-29.137000,28.420000,40.679000,29.280000
3.649,-0.250000,-0.817000,0.399000,-25.153000,15.069000,40.847000,29.190000
3.661,-0.220000,-0.825000,0.457000,-26.382000,12.924000,35.855000,29.330000
3.668,-0.215000,-0.764000,0.546000,-28.863000,11.153000,30.962000,29.240000
3.681,-0.246000,-0.704000,0.625000,-37.473000,0.061000,32.489000,29.240000
3.693,-0.271000,-0.692000,0.641000,-48.626000,-1.977000,30.550000,29.280000
3.699,-0.273000,-0.724000,0.611000,-56.382000,-7.198000,30.275000,29.240000
3.712,-0.254000,-0.776000,0.560000,-59.756000,-10.252000,29.649000,29.240000
3.718,-0.200000,-0.857000,0.508000,-55.214000,-13.160000,27.221000,29.280000
3.731,-0.176000,-0.906000,0.469000,-48.229000,-17.275000,23.466000,29.190000
3.742,-0.130000,-0.942000,0.448000,-41.992000,-19.962000,20.550000,29.240000
3.749,-0.036000,-0.922000,0.444000,-36.786000,-10.786000,14.573000,29.240000
3.761,-0.050000,-0.902000,0.447000,-29.824000,-9.435000,15.725000,29.190000
3.768,-0.091000,-0.938000,0.402000,-20.939000,-17.198000,21.374000,29.280000
3.780,-0.109000,-0.927000,0.364000,-20.168000,-21.817000,27.122000,29.280000
3.793,-0.201000,-0.909000,0.343000,-24.359000,-33.985000,33.130000,29.330000
3.799,-0.256000,-0.927000,0.317000,-28.481000,-48.282000,37.489000,29.140000
3.811,-0.250000,-0.954000,0.310000,-22.878000,-67.008000,35.588000,29.190000
3.818,-0.207000,-0.948000,0.332000,-16.420000,-87.893000,33.672000,29.280000
3.831,-0.100000,-0.930000,0.361000,-12.305000,-102.870000,29.977000,29.240000
3.842,-0.039000,-0.849000,0.417000,-16.244000,-119.122000,32.527000,29.330000
3.849,0.027000,-0.834000,0.416000,-30.496000,-123.260000,39.985000,29.330000
3.861,0.086000,-0.824000,0.435000,-44.237000,-108.519000,41.794000,29.190000
3.873,0.055000,-0.907000,0.435000,-48.237000,-101.519000,48.031000,29.240000
3.880,0.084000,-0.948000,0.415000,-44.008000,-92.664000,48.115000,29.330000
3.892,0.064000,-0.969000,0.412000,-31.061000,-90.450000,45.023000,29.190000
3.899,0.030000,-0.999000,0.415000,-22.519000,-88.321000,38.359000,29.190000
3.911,0.060000,-1.006000,0.445000,-12.023000,-82.962000,27.603000,29.330000
3.916,0.100000,-1.010000,0.475000,-2.122000,-75.344000,19.550000,29.330000
3.931,0.132000,-1.021000,0.525000,17.321000,-60.901000,12.046000,29.190000
3.943,0.133000,-0.972000,0.563000,24.908000,-43.809000,7.588000,29.280000
3.949,0.098000,-0.934000,0.584000,28.885000,-35.336000,7.122000,29.240000
3.962,0.039000,-0.915000,0.596000,25.817000,-32.794000,5.710000,29.240000
3.969,0.032000,-0.914000,0.587000,20.702000,-28.489000,3.740000,29.280000
3.981,0.048000,-0.931000,0.576000,16.473000,-32.672000,4.603000,29.280000
3.989,0.094000,-0.898000,0.578000,9.725000,-32.588000,3.656000,29.240000
4.000,0.116000,-0.890000,0.597000,0.840000,-32.229000,8.374000,29.240000
4.013,0.099000,-0.864000,0.599000,-12.443000,-38.947000,17.107000,29.240000
4.019,0.074000,-0.923000,0.560000,-31.672000,-49.779000,31.695000,29.280000
4.032,0.121000,-1.008000,0.449000,-39.038000,-56.282000,38.664000,29.240000
4.038,0.197000,-1.061000,0.375000,-39.511000,-42.252000,43.237000,29.240000
4.050,0.218000,-1.126000,0.304000,-33.420000,-23.145000,31.962000,29.280000
4.063,0.177000,-1.104000,0.294000,-23.336000,1.679000,18.397000,29.280000
4.070,0.100000,-1.068000,0.276000,-11.252000,-5.107000,9.084000,29.240000
4.084,0.051000,-1.036000,0.279000,-6.550000,-19.939000,9.656000,29.330000
4.090,0.004000,-0.951000,0.314000,-13.000000,-44.160000,20.267000,29.280000
4.101,0.012000,-0.902000,0.381000,-11.611000,-61.069000,29.160000,29.190000
4.108,0.073000,-0.901000,0.450000,-12.626000,-66.405000,37.588000,29.240000
4.120,0.140000,-0.887000,0.486000,-11.496000,-56.450000,42.328000,29.330000
4.132,0.141000,-0.893000,0.504000,-10.176000,-42.405000,44.267000,29.190000
4.140,0.077000,-0.903000,0.488000,-6.947000,-26.420000,39.519000,29.190000
4.152,-0.007000,-0.917000,0.485000,-1.130000,-9.977000,30.649000,29.240000
4.158,-0.067000,-0.905000,0.476000,2.687000,14.313000,16.435000,29.240000
4.171,-0.167000,-0.904000,0.476000,4.031000,21.046000,4.115000,29.330000
4.179,-0.222000,-0.907000,0.445000,1.985000,16.313000,-5.321000,29.190000
4.191,-0.213000,-0.925000,0.440000,-0.260000,10.473000,-13.504000,29.280000
4.203,-0.131000,-0.974000,0.425000,1.275000,4.573000,-18.565000,29.330000
4.209,-0.011000,-1.019000,0.396000,3.969000,0.855000,-21.031000,29.240000
4.223,0.102000,-1.006000,0.381000,9.786000,-0.901000,-21.000000,29.280000
4.230,0.186000,-1.012000,0.387000,17.061000,10.641000,-20.336000,29.190000
4.241,0.180000,-1.021000,0.363000,23.427000,26.649000,-20.962000,29.240000
4.248,0.079000,-0.993000,0.363000,24.527000,33.046000,-18.641000,29.240000
4.260,-0.044000,-0.949000,0.355000,19.466000,29.802000,-17.992000,29.190000
4.273,-0.153000,-0.929000,0.340000,11.260000,13.924000,-17.313000,29.380000
4.279,-0.106000,-0.922000,0.353000,4.626000,-3.130000,-17.573000,29.240000
4.292,-0.024000,-0.917000,0.365000,2.145000,-12.924000,-16.641000,29.240000
4.298,0.087000,-0.919000,0.386000,5.756000,-17.550000,-14.817000,29.380000
4.310,0.188000,-0.913000,0.403000,12.679000,-12.282000,-12.191000,29.280000
4.323,0.246000,-0.895000,0.441000,19.061000,-3.015000,-8.107000,29.240000
4.330,0.225000,-0.875000,0.478000,21.931000,4.641000,-5.618000,29.140000
4.343,0.155000,-0.848000,0.475000,16.229000,8.076000,-3.641000,29.240000
4.349,0.062000,-0.856000,0.454000,8.870000,2.328000,0.076000,29.280000
4.362,0.035000,-0.885000,0.453000,0.412000,-2.053000,3.603000,29.240000
4.369,0.010000,-0.906000,0.444000,-2.832000,-7.023000,7.588000,29.240000
4.383,0.025000,-0.902000,0.448000,1.053000,-12.046000,12.847000,29.280000
4.389,0.064000,-0.864000,0.458000,2.855000,-5.855000,12.122000,29.280000
4.401,0.067000,-0.875000,0.492000,4.191000,1.565000,10.870000,29.240000
4.408,0.021000,-0.853000,0.469000,5.725000,5.374000,8.153000,29.330000
4.421,-0.050000,-0.864000,0.422000,0.565000,7.695000,7.557000,29.190000
4.429,-0.108000,-0.872000,0.397000,1.336000,8.870000,4.412000,29.280000
4.441,-0.110000,-0.896000,0.352000,2.679000,7.809000,0.183000,29.330000
4.453,-0.047000,-0.940000,0.356000,7.832000,6.878000,-7.023000,29.240000
4.460,0.007000,-0.929000,0.356000,13.466000,9.863000,-11.634000,29.190000
4.473,0.052000,-0.935000,0.357000,20.458000,9.130000,-14.443000,29.280000
4.479,0.079000,-0.909000,0.405000,25.840000,9.992000,-13.282000,29.240000
4.492,0.104000,-0.892000,0.405000,32.947000,8.985000,-13.908000,29.240000
4.499,0.043000,-0.833000,0.416000,26.305000,10.328000,-9.443000,29.330000
4.511,-0.019000,-0.824000,0.443000,25.756000,0.939000,-4.046000,29.380000
4.518,-0.017000,-0.835000,0.454000,20.756000,-8.748000,-1.000000,29.240000
4.531,0.037000,-0.840000,0.513000,13.702000,-9.160000,-0.519000,29.240000
4.543,0.051000,-0.845000,0.579000,13.832000,-3.435000,-2.023000,29.280000
4.549,0.098000,-0.860000,0.573000,16.557000,4.580000,-3.458000,29.280000
4.562,0.081000,-0.855000,0.577000,13.496000,12.099000,-2.328000,29.330000
4.569,0.035000,-0.866000,0.533000,8.855000,16.313000,-0.588000,29.330000
4.581,-0.041000,-0.876000,0.499000,4.282000,14.359000,2.351000,29.280000
4.588,-0.094000,-0.861000,0.455000,0.763000,10.779000,3.901000,29.280000
4.601,-0.107000,-0.875000,0.421000,-1.382000,6.351000,3.130000,29.330000
4.608,-0.065000,-0.902000,0.417000,0.802000,-1.305000,1.595000,29.330000
4.620,-0.029000,-0.933000,0.433000,3.756000,0.206000,-2.718000,29.380000
4.634,-0.006000,-0.968000,0.423000,8.649000,5.611000,-7.672000,29.280000
4.641,0.006000,-0.991000,0.425000,11.794000,9.824000,-11.412000,29.330000
4.652,-0.003000,-1.003000,0.430000,15.366000,16.420000,-13.710000,29.330000
4.659,0.003000,-1.007000,0.450000,22.359000,26.756000,-17.092000,29.330000
4.671,0.030000,-0.960000,0.491000,29.542000,41.626000,-22.626000,29.280000
4.681,0.028000,-0.965000,0.534000,30.740000,52.687000,-29.191000,29.330000
4.691,0.015000,-0.911000,0.529000,26.527000,50.603000,-34.061000,29.330000
4.702,-0.069000,-0.902000,0.517000,15.702000,39.969000,-30.786000,29.380000
4.709,-0.093000,-0.893000,0.537000,13.511000,24.992000,-28.282000,29.380000
4.724,-0.061000,-0.888000,0.552000,5.359000,5.389000,-19.969000,29.280000
4.729,0.019000,-0.901000,0.521000,-6.489000,-18.809000,-6.664000,29.240000
4.741,0.101000,-0.901000,0.521000,-10.359000,-34.183000,4.000000,29.330000
4.753,0.200000,-0.916000,0.494000,-14.969000,-40.687000,16.427000,29.280000
4.760,0.230000,-0.969000,0.478000,-16.557000,-37.298000,26.725000,29.380000
4.773,0.267000,-0.970000,0.463000,-17.427000,-17.634000,29.687000,29.330000
4.780,0.255000,-0.978000,0.463000,-18.725000,12.412000,24.237000,29.330000
4.791,0.188000,-0.984000,0.422000,-19.344000,23.504000,23.756000,29.280000
4.799,0.153000,-0.985000,0.366000,-18.298000,22.824000,26.885000,29.380000
4.810,0.135000,-0.949000,0.339000,-18.244000,29.237000,26.992000,29.330000
4.823,0.078000,-0.919000,0.300000,-14.794000,31.580000,28.374000,29.420000
4.830,-0.016000,-0.911000,0.290000,-11.954000,24.771000,32.344000,29.330000
4.842,-0.066000,-0.860000,0.285000,-4.916000,18.168000,31.298000,29.280000
4.849,-0.072000,-0.865000,0.310000,2.412000,4.023000,33.924000,29.330000
4.861,-0.018000,-0.881000,0.388000,14.489000,6.992000,30.282000,29.420000
4.868,0.050000,-0.841000,0.448000,25.168000,20.756000,24.313000,29.380000
4.881,0.051000,-0.796000,0.498000,31.000000,33.786000,17.267000,29.280000
4.893,0.063000,-0.840000,0.519000,36.779000,47.992000,10.519000,29.330000
4.900,0.096000,-0.849000,0.500000,43.023000,62.420000,2.954000,29.240000
4.912,0.079000,-0.838000,0.505000,50.840000,73.710000,4.145000,29.190000
4.919,-0.002000,-0.762000,0.486000,61.504000,84.710000,7.237000,29.280000
4.933,-0.092000,-0.697000,0.477000,71.405000,78.229000,9.840000,29.330000
4.939,-0.173000,-0.609000,0.505000,66.260000,70.038000,12.870000,29.240000
4.950,-0.266000,-0.561000,0.502000,55.504000,54.206000,12.137000,29.330000
4.956,-0.220000,-0.561000,0.562000,33.656000,61.023000,0.305000,29.280000
4.970,-0.283000,-0.644000,0.545000,18.023000,56.824000,-8.511000,29.380000
4.983,-0.222000,-0.673000,0.528000,13.748000,40.397000,-12.344000,29.330000
4.989,-0.110000,-0.717000,0.511000,10.802000,29.863000,-10.573000,29.330000
5.001,-0.046000,-0.711000,0.517000,9.519000,22.290000,-1.656000,29.240000
5.008,-0.045000,-0.729000,0.528000,11.153000,16.565000,9.290000,29.380000
5.020,-0.061000,-0.748000,0.524000,9.267000,12.954000,21.214000,29.240000
5.027,-0.076000,-0.736000,0.503000,5.977000,7.466000,31.305000,29.240000
5.040,-0.139000,-0.724000,0.491000,5.084000,-7.153000,38.107000,29.280000
5.052,-0.130000,-0.691000,0.487000,-1.901000,-7.237000,36.893000,29.280000
5.059,-0.119000,-0.691000,0.465000,-5.130000,3.496000,30.595000,29.330000
5.074,-0.122000,-0.712000,0.428000,-3.771000,3.550000,26.160000,29.240000
5.080,-0.112000,-0.718000,0.426000,1.534000,4.405000,20.771000,29.380000
5.091,-0.103000,-0.738000,0.410000,8.466000,7.603000,16.290000,29.380000
5.098,-0.099000,-0.746000,0.433000,17.740000,11.466000,9.321000,29.330000
5.110,-0.101000,-0.758000,0.433000,27.824000,15.931000,1.023000,29.330000
5.123,-0.114000,-0.780000,0.435000,34.748000,19.366000,-6.344000,29.280000
5.130,-0.124000,-0.797000,0.487000,41.939000,17.542000,-9.725000,29.380000
5.142,-0.107000,-0.865000,0.532000,47.832000,4.031000,-10.046000,29.380000
5.149,-0.147000,-0.865000,0.557000,45.634000,6.916000,-11.244000,29.240000
5.161,-0.195000,-0.880000,0.594000,49.733000,10.450000,-12.336000,29.330000
5.168,-0.247000,-0.865000,0.647000,54.298000,8.466000,-12.855000,29.280000
5.180,-0.271000,-0.812000,0.696000,53.672000,3.191000,-14.962000,29.380000
5.193,-0.292000,-0.747000,0.730000,49.969000,-4.229000,-16.557000,29.420000
5.199,-0.270000,-0.702000,0.785000,41.901000,-14.328000,-16.511000,29.330000
5.211,-0.197000,-0.672000,0.802000,30.160000,-19.481000,-17.137000,29.380000
5.218,-0.125000,-0.652000,0.819000,17.031000,-21.160000,-16.779000,29.380000
5.231,-0.070000,-0.675000,0.816000,8.763000,-24.252000,-13.008000,29.420000
5.242,-0.007000,-0.646000,0.775000,2.786000,-18.198000,-10.168000,29.330000
5.249,0.027000,-0.677000,0.742000,-2.023000,-10.534000,-6.550000,29.380000
5.261,0.040000,-0.697000,0.688000,-4.542000,-4.542000,-1.053000,29.380000
5.269,0.041000,-0.702000,0.641000,-3.366000,-1.649000,2.160000,29.330000
5.281,-0.009000,-0.707000,0.597000,-3.183000,-0.405000,4.725000,29.330000
5.289,-0.023000,-0.715000,0.565000,-1.718000,0.489000,4.382000,29.280000
5.300,-0.051000,-0.723000,0.542000,0.504000,-1.733000,2.824000,29.280000
5.313,-0.053000,-0.718000,0.552000,6.069000,-5.473000,1.748000,29.380000
5.320,-0.028000,-0.739000,0.580000,9.496000,-9.702000,1.870000,29.330000
5.332,-0.030000,-0.759000,0.612000,8.733000,-11.496000,0.992000,29.420000
5.340,-0.029000,-0.785000,0.617000,9.038000,-14.389000,2.374000,29.280000
5.351,-0.024000,-0.817000,0.628000,10.885000,-15.122000,5.023000,29.380000
5.358,-0.048000,-0.826000,0.625000,10.710000,-12.748000,7.947000,29.420000
5.370,-0.068000,-0.807000,0.636000,10.695000,-6.870000,8.252000,29.420000
5.379,-0.100000,-0.794000,0.628000,8.519000,-2.718000,7.588000,29.380000
5.390,-0.130000,-0.782000,0.643000,8.359000,-1.466000,5.702000,29.380000
5.403,-0.116000,-0.776000,0.650000,10.038000,-5.366000,3.824000,29.420000
5.409,-0.128000,-0.766000,0.655000,11.000000,-8.489000,2.046000,29.330000
5.423,-0.115000,-0.760000,0.658000,10.099000,-3.687000,-0.511000,29.280000
5.430,-0.106000,-0.756000,0.656000,10.481000,1.786000,-2.031000,29.380000
5.442,-0.091000,-0.757000,0.649000,11.847000,7.550000,-2.122000,29.420000
5.449,-0.092000,-0.747000,0.648000,14.122000,12.321000,-0.702000,29.420000
5.460,-0.116000,-0.743000,0.644000,14.641000,16.290000,2.374000,29.380000
5.473,-0.130000,-0.729000,0.633000,11.382000,17.489000,6.649000,29.380000
5.480,-0.149000,-0.710000,0.633000,6.031000,19.313000,9.366000,29.420000
5.493,-0.158000,-0.726000,0.596000,4.183000,15.740000,12.366000,29.520000
5.499,-0.173000,-0.696000,0.611000,1.687000,11.244000,15.893000,29.420000
5.512,-0.164000,-0.659000,0.635000,2.916000,9.023000,14.832000,29.380000
5.519,-0.186000,-0.682000,0.623000,1.252000,-1.244000,16.275000,29.470000
5.532,-0.179000,-0.678000,0.627000,3.137000,-8.794000,15.084000,29.330000
5.540,-0.153000,-0.677000,0.640000,5.122000,-13.809000,12.550000,29.330000
5.550,-0.150000,-0.681000,0.645000,6.405000,-16.237000,9.489000,29.280000
5.562,-0.144000,-0.656000,0.663000,6.885000,-18.405000,6.359000,29.380000
5.569,-0.123000,-0.657000,0.685000,7.206000,-22.916000,3.573000,29.420000
5.582,-0.092000,-0.643000,0.699000,4.092000,-24.443000,-0.435000,29.420000
5.589,-0.051000,-0.657000,0.728000,1.351000,-22.779000,-3.756000,29.380000
5.601,-0.003000,-0.673000,0.717000,-0.977000,-17.626000,-6.733000,29.380000
5.606,0.019000,-0.699000,0.712000,-1.931000,-11.947000,-8.229000,29.330000
5.620,0.053000,-0.720000,0.688000,-1.885000,-5.947000,-8.603000,29.420000
5.633,0.051000,-0.726000,0.676000,-1.237000,1.214000,-7.611000,29.330000
5.640,0.030000,-0.725000,0.673000,0.176000,6.511000,-5.969000,29.380000
5.652,-0.007000,-0.735000,0.637000,0.489000,6.672000,-5.397000,29.380000
5.659,-0.056000,-0.757000,0.618000,2.107000,3.099000,-6.763000,29.420000
5.673,-0.069000,-0.770000,0.627000,2.389000,3.359000,-8.618000,29.330000
5.679,-0.057000,-0.782000,0.631000,4.206000,3.046000,-11.321000,29.420000
5.692,-0.033000,-0.789000,0.632000,4.130000,6.565000,-12.290000,29.380000
5.698,-0.029000,-0.779000,0.624000,2.611000,13.443000,-12.191000,29.330000
5.710,-0.047000,-0.783000,0.625000,1.824000,18.519000,-11.137000,29.420000
5.723,-0.063000,-0.766000,0.620000,1.275000,21.382000,-8.489000,29.380000
5.730,-0.086000,-0.759000,0.608000,-0.489000,21.954000,-5.107000,29.380000
5.742,-0.109000,-0.752000,0.590000,-3.542000,20.038000,-1.740000,29.420000
5.749,-0.132000,-0.745000,0.579000,-3.397000,12.557000,2.656000,29.420000
5.761,-0.154000,-0.738000,0.590000,-1.649000,4.267000,7.084000,29.330000
5.768,-0.164000,-0.724000,0.588000,-2.771000,-1.160000,9.595000,29.380000
5.781,-0.157000,-0.713000,0.598000,-2.710000,-4.061000,10.389000,29.380000
5.792,-0.158000,-0.701000,0.597000,-2.137000,-5.878000,10.634000,29.240000
5.800,-0.165000,-0.707000,0.610000,0.595000,-8.626000,10.107000,29.420000
5.812,-0.154000,-0.679000,0.633000,2.824000,-6.389000,7.298000,29.380000
5.819,-0.167000,-0.684000,0.643000,4.641000,-5.779000,4.595000,29.280000
5.832,-0.167000,-0.662000,0.649000,5.557000,-7.695000,2.573000,29.330000
5.839,-0.161000,-0.652000,0.664000,6.008000,-9.137000,0.679000,29.420000
5.850,-0.152000,-0.632000,0.689000,5.534000,-11.840000,-1.092000,29.330000
5.863,-0.131000,-0.636000,0.693000,5.267000,-16.313000,-1.649000,29.380000
5.870,-0.106000,-0.638000,0.716000,4.794000,-20.176000,-1.763000,29.520000
5.882,-0.077000,-0.641000,0.727000,2.702000,-19.328000,-2.221000,29.330000
5.889,-0.067000,-0.659000,0.725000,-0.053000,-17.916000,-3.466000,29.330000
5.901,-0.056000,-0.683000,0.720000,-1.595000,-17.229000,-4.672000,29.280000
5.908,-0.025000,-0.706000,0.715000,-0.527000,-15.824000,-5.115000,29.380000
5.920,0.006000,-0.726000,0.726000,0.947000,-14.656000,-4.664000,29.330000
5.933,0.037000,-0.723000,0.723000,-1.038000,-7.237000,-5.504000,29.420000
5.940,0.033000,-0.737000,0.718000,-3.649000,2.466000,-5.679000,29.470000
5.952,0.026000,-0.738000,0.691000,-5.405000,8.626000,-4.458000,29.380000
5.959,0.011000,-0.746000,0.669000,-7.496000,12.359000,-1.893000,29.420000
5.974,-0.015000,-0.754000,0.651000,-8.542000,12.397000,0.321000,29.420000
5.980,-0.042000,-0.757000,0.622000,-8.832000,10.450000,2.809000,29.380000
5.991,-0.041000,-0.758000,0.611000,-8.611000,9.290000,5.061000,29.380000
5.999,-0.062000,-0.763000,0.601000,-8.389000,6.763000,7.405000,29.420000
6.010,-0.072000,-0.752000,0.589000,-7.847000,5.588000,9.008000,29.420000
6.023,-0.094000,-0.748000,0.573000,-6.977000,4.771000,9.687000,29.420000
6.031,-0.108000,-0.753000,0.567000,-6.176000,4.076000,8.504000,29.380000
6.043,-0.115000,-0.750000,0.562000,-3.672000,1.069000,7.229000,29.470000
6.049,-0.108000,-0.744000,0.571000,-0.748000,-3.191000,6.458000,29.420000
6.062,-0.105000,-0.749000,0.589000,3.954000,-7.328000,5.931000,29.420000
6.069,-0.090000,-0.734000,0.599000,3.679000,-7.992000,5.824000,29.470000
6.081,-0.074000,-0.722000,0.606000,4.214000,-6.305000,4.504000,29.380000
6.088,-0.077000,-0.722000,0.634000,4.588000,-6.656000,4.634000,29.420000
6.100,-0.087000,-0.707000,0.629000,4.748000,-7.969000,5.122000,29.420000
6.108,-0.077000,-0.701000,0.646000,4.840000,-6.481000,3.458000,29.470000
6.120,-0.069000,-0.708000,0.656000,4.855000,-6.153000,2.191000,29.380000
6.133,-0.049000,-0.702000,0.681000,5.847000,-7.183000,1.672000,29.420000
6.140,-0.023000,-0.703000,0.680000,4.603000,-5.305000,2.618000,29.420000
6.152,-0.036000,-0.699000,0.699000,3.908000,-1.252000,3.779000,29.380000
6.159,-0.064000,-0.686000,0.700000,1.863000,1.328000,5.443000,29.380000
6.174,-0.085000,-0.691000,0.690000,-1.008000,2.908000,6.237000,29.420000
6.180,-0.077000,-0.694000,0.670000,-2.366000,2.313000,5.511000,29.420000
6.191,-0.095000,-0.708000,0.660000,-3.702000,1.298000,5.076000,29.420000
6.198,-0.109000,-0.702000,0.658000,-3.656000,2.832000,4.229000,29.380000
6.211,-0.101000,-0.714000,0.652000,-3.771000,2.183000,3.382000,29.380000
6.218,-0.094000,-0.712000,0.640000,-4.534000,1.374000,2.916000,29.420000
6.230,-0.081000,-0.727000,0.646000,-4.061000,1.046000,2.786000,29.420000
6.243,-0.073000,-0.727000,0.631000,-3.183000,-0.870000,3.855000,29.380000
6.250,-0.078000,-0.727000,0.629000,-3.695000,1.122000,3.817000,29.470000
6.262,-0.086000,-0.727000,0.616000,-4.206000,3.489000,3.389000,29.420000
6.269,-0.106000,-0.733000,0.593000,-4.550000,4.443000,2.954000,29.330000
6.283,-0.116000,-0.740000,0.584000,-3.939000,4.519000,1.634000,29.380000
6.289,-0.113000,-0.750000,0.585000,-1.496000,1.397000,0.435000,29.380000
6.301,-0.114000,-0.750000,0.586000,1.084000,0.031000,-1.450000,29.420000
6.308,-0.104000,-0.748000,0.590000,2.336000,1.435000,-3.321000,29.520000
6.321,-0.093000,-0.755000,0.601000,4.450000,0.656000,-4.275000,29.380000
6.333,-0.079000,-0.745000,0.599000,6.863000,-1.740000,-3.832000,29.380000
6.340,-0.077000,-0.735000,0.602000,8.908000,-5.611000,-3.038000,29.420000
6.352,-0.092000,-0.740000,0.615000,9.466000,-6.313000,-1.977000,29.420000
6.359,-0.087000,-0.716000,0.622000,7.344000,-3.557000,-2.084000,29.330000
6.373,-0.094000,-0.716000,0.633000,6.603000,-2.725000,-2.824000,29.470000
6.380,-0.082000,-0.721000,0.637000,3.519000,0.061000,-4.099000,29.420000
6.391,-0.074000,-0.720000,0.640000,2.672000,1.435000,-5.008000,29.520000
6.399,-0.061000,-0.727000,0.639000,3.756000,-0.412000,-4.481000,29.420000
6.410,-0.056000,-0.720000,0.652000,3.786000,-0.366000,-4.282000,29.470000
6.422,-0.038000,-0.718000,0.654000,5.504000,-0.687000,-3.649000,29.380000
6.429,-0.045000,-0.721000,0.663000,5.794000,-0.435000,-2.534000,29.330000
6.443,-0.057000,-0.701000,0.676000,5.702000,0.046000,-2.137000,29.420000
6.450,-0.060000,-0.702000,0.668000,4.603000,-0.191000,-2.008000,29.380000
6.462,-0.064000,-0.697000,0.663000,2.153000,0.595000,-2.053000,29.470000
6.468,-0.057000,-0.713000,0.670000,2.565000,-0.412000,-2.252000,29.420000
6.481,-0.064000,-0.720000,0.646000,2.359000,-1.275000,-1.603000,29.420000
6.489,-0.051000,-0.724000,0.657000,2.466000,-0.244000,-1.542000,29.380000
6.500,-0.055000,-0.720000,0.646000,2.595000,0.321000,-1.336000,29.470000
6.520,-0.046000,-0.715000,0.660000,3.382000,1.275000,-2.351000,29.420000
6.520,-0.054000,-0.706000,0.669000,2.908000,2.565000,-1.878000,29.420000
