time_sec,ax,ay,az,gx,gy,gz,temp_c
0.011,-0.059000,-0.829000,0.361000,-45.779000,-16.817000,7.580000,29.890000
0.018,-0.033000,-0.855000,0.366000,-46.000000,-18.191000,9.191000,29.890000
0.030,-0.031000,-0.836000,0.371000,-46.504000,-15.046000,11.382000,29.850000
0.037,-0.041000,-0.846000,0.363000,-47.061000,-8.382000,13.580000,29.940000
0.049,-0.056000,-0.844000,0.354000,-46.244000,-3.679000,14.046000,29.800000
0.056,-0.121000,-0.808000,0.330000,-55.267000,-13.389000,22.542000,29.890000
0.068,-0.221000,-0.841000,0.258000,-63.634000,-30.046000,29.527000,29.850000
0.080,-0.316000,-0.793000,0.214000,-70.198000,-53.397000,37.389000,29.850000
0.087,-0.382000,-0.821000,0.154000,-79.573000,-79.176000,43.069000,29.890000
0.099,-0.343000,-0.888000,0.122000,-78.939000,-100.832000,46.542000,29.850000
0.107,-0.238000,-0.921000,0.181000,-71.153000,-112.489000,46.053000,29.940000
0.118,-0.165000,-0.943000,0.214000,-55.374000,-115.183000,41.206000,29.800000
0.130,-0.056000,-0.948000,0.286000,-39.267000,-104.229000,32.763000,29.800000
0.136,-0.010000,-0.927000,0.322000,-23.427000,-80.298000,20.618000,29.850000
0.148,-0.001000,-0.883000,0.353000,-11.244000,-52.389000,8.496000,29.940000
0.161,-0.031000,-0.819000,0.363000,-3.595000,-32.115000,-1.718000,29.890000
0.167,-0.093000,-0.812000,0.333000,-7.863000,-26.458000,-3.427000,29.800000
0.180,-0.157000,-0.856000,0.269000,-13.420000,-34.130000,2.382000,29.940000
0.187,-0.153000,-0.879000,0.224000,-16.870000,-41.779000,8.611000,29.850000
0.199,-0.142000,-0.931000,0.229000,-17.351000,-40.969000,12.107000,29.800000
0.211,-0.106000,-0.940000,0.215000,-15.344000,-36.870000,13.557000,29.890000
0.217,-0.086000,-0.952000,0.187000,-14.153000,-31.298000,11.817000,29.850000
0.230,-0.067000,-0.963000,0.162000,-13.183000,-28.687000,9.962000,29.850000
0.238,-0.048000,-0.997000,0.161000,-11.160000,-25.603000,6.695000,29.800000
0.249,-0.023000,-1.035000,0.152000,-6.183000,-20.534000,3.168000,29.940000
0.255,0.002000,-1.038000,0.165000,-1.771000,-6.985000,-3.702000,29.850000
0.268,-0.003000,-1.037000,0.168000,1.504000,2.542000,-7.901000,29.800000
0.281,-0.044000,-1.029000,0.169000,3.130000,5.496000,-8.397000,29.890000
0.288,-0.078000,-1.000000,0.174000,1.992000,6.718000,-8.115000,29.850000
0.300,-0.096000,-1.003000,0.184000,2.092000,0.924000,-5.962000,29.940000
0.307,-0.080000,-0.994000,0.205000,4.053000,-9.985000,-1.153000,29.800000
0.319,-0.064000,-1.007000,0.250000,8.519000,-17.344000,1.260000,29.990000
0.327,0.003000,-0.993000,0.282000,12.382000,-22.412000,3.702000,29.850000
0.339,0.027000,-0.993000,0.340000,15.748000,-24.458000,6.847000,29.940000
0.346,0.020000,-0.945000,0.347000,16.779000,-31.748000,11.672000,29.890000
0.358,0.017000,-0.917000,0.374000,12.855000,-28.023000,14.496000,29.890000
0.370,-0.016000,-0.914000,0.386000,9.145000,-25.977000,14.924000,29.850000
0.378,-0.027000,-0.920000,0.391000,5.878000,-25.519000,13.443000,29.890000
0.389,-0.033000,-0.924000,0.395000,1.740000,-24.626000,14.733000,29.890000
0.396,-0.031000,-0.958000,0.388000,-0.214000,-21.985000,13.939000,29.850000
0.408,-0.038000,-0.962000,0.363000,0.519000,-24.817000,15.679000,29.850000
0.421,-0.071000,-0.980000,0.357000,0.763000,-29.649000,19.115000,29.890000
0.428,-0.037000,-0.955000,0.357000,-4.450000,-22.878000,12.366000,29.800000
0.440,-0.094000,-0.974000,0.353000,-8.031000,-18.679000,8.267000,29.850000
0.447,-0.132000,-0.968000,0.329000,-9.176000,-20.397000,7.710000,29.850000
0.459,-0.134000,-0.947000,0.329000,-14.916000,-25.588000,4.244000,29.800000
0.466,-0.124000,-0.969000,0.309000,-21.450000,-32.893000,0.985000,29.890000
0.479,-0.104000,-0.969000,0.322000,-25.924000,-37.458000,-1.985000,29.850000
0.490,-0.070000,-0.984000,0.309000,-29.840000,-38.870000,-3.779000,29.850000
0.497,-0.035000,-1.005000,0.284000,-34.809000,-40.344000,-3.237000,29.800000
0.509,-0.034000,-1.011000,0.249000,-40.275000,-40.695000,0.656000,29.800000
0.514,-0.034000,-1.062000,0.201000,-38.695000,-43.221000,7.305000,29.850000
0.529,-0.006000,-1.075000,0.203000,-35.802000,-46.626000,13.504000,29.890000
0.540,0.005000,-1.098000,0.197000,-29.718000,-49.534000,16.702000,29.890000
0.548,0.062000,-1.076000,0.224000,-21.511000,-53.053000,18.794000,29.850000
0.559,0.110000,-1.050000,0.242000,-17.511000,-48.275000,10.809000,29.940000
0.566,0.110000,-1.078000,0.235000,-14.267000,-37.885000,0.557000,29.890000
0.579,0.087000,-1.092000,0.222000,-10.061000,-34.176000,-0.702000,29.890000
0.591,0.056000,-1.090000,0.219000,-5.824000,-28.466000,-2.321000,29.850000
0.597,-0.003000,-1.081000,0.220000,-5.634000,-28.206000,-2.725000,29.850000
0.609,-0.023000,-1.066000,0.233000,-5.702000,-28.015000,0.244000,29.890000
0.616,-0.005000,-1.047000,0.253000,-8.420000,-30.137000,1.863000,29.890000
0.628,0.021000,-1.087000,0.267000,-5.947000,-38.710000,8.252000,29.940000
0.641,0.076000,-1.077000,0.265000,-7.824000,-37.420000,12.740000,29.940000
0.648,0.094000,-1.086000,0.281000,-9.069000,-24.969000,13.427000,29.800000
0.660,0.085000,-1.092000,0.253000,-7.885000,-12.557000,15.557000,29.890000
0.667,0.072000,-1.119000,0.253000,-2.634000,-3.740000,19.122000,29.850000
0.679,0.097000,-1.087000,0.225000,-3.511000,10.069000,18.779000,29.890000
0.687,0.068000,-1.033000,0.261000,-2.130000,34.687000,8.023000,29.890000
0.699,-0.028000,-1.020000,0.233000,-2.840000,37.000000,8.237000,29.940000
0.704,-0.105000,-1.030000,0.195000,-6.412000,37.015000,10.947000,29.850000
0.717,-0.144000,-1.010000,0.188000,-10.282000,36.977000,12.824000,29.800000
0.730,-0.133000,-1.050000,0.183000,-10.870000,30.359000,17.473000,29.890000
0.737,-0.078000,-1.061000,0.195000,-8.580000,24.168000,22.229000,29.940000
0.749,-0.050000,-1.103000,0.200000,-5.832000,25.000000,24.519000,29.940000
0.756,-0.052000,-1.124000,0.193000,1.870000,28.901000,21.565000,29.890000
0.768,-0.014000,-1.128000,0.205000,11.931000,38.420000,11.641000,29.800000
0.781,0.003000,-1.118000,0.205000,21.275000,57.290000,-4.756000,29.940000
0.788,-0.017000,-1.078000,0.230000,32.626000,67.557000,-12.809000,29.850000
0.800,-0.068000,-1.041000,0.163000,32.534000,67.710000,-17.122000,29.800000
0.806,-0.215000,-1.022000,0.137000,28.321000,51.672000,-12.947000,29.890000
0.819,-0.280000,-0.998000,0.145000,21.916000,28.244000,-4.275000,29.940000
0.828,-0.250000,-0.986000,0.188000,8.374000,9.847000,-0.321000,29.890000
0.839,-0.211000,-0.992000,0.228000,-0.115000,-6.412000,3.618000,29.890000
0.850,-0.128000,-0.985000,0.254000,-4.985000,-15.779000,6.008000,29.940000
0.857,-0.042000,-0.989000,0.268000,-5.252000,-16.443000,5.122000,29.850000
0.870,0.031000,-1.012000,0.292000,-2.489000,-7.718000,2.313000,29.890000
0.877,0.105000,-1.017000,0.282000,6.244000,6.824000,-6.359000,29.890000
0.889,0.061000,-1.032000,0.269000,13.031000,14.695000,-11.008000,29.940000
0.896,0.026000,-1.044000,0.218000,13.183000,12.832000,-11.824000,29.750000
0.908,-0.084000,-1.021000,0.185000,3.450000,6.107000,-5.481000,29.990000
0.921,-0.137000,-0.985000,0.167000,-2.931000,-9.344000,3.779000,29.850000
0.929,-0.118000,-0.975000,0.161000,-10.496000,-25.763000,12.908000,29.940000
0.940,-0.055000,-0.974000,0.178000,-14.542000,-34.595000,18.725000,29.890000
0.947,0.006000,-0.979000,0.207000,-15.763000,-36.031000,21.725000,29.890000
0.959,0.014000,-0.970000,0.226000,-12.656000,-34.977000,19.107000,29.890000
0.971,-0.075000,-1.013000,0.239000,-7.893000,-38.611000,19.008000,29.850000
0.979,-0.094000,-0.981000,0.246000,-6.298000,-37.000000,14.863000,29.890000
0.990,-0.084000,-0.983000,0.242000,-3.664000,-36.985000,12.084000,29.890000
0.997,-0.043000,-0.950000,0.261000,-1.992000,-32.092000,5.924000,29.850000
1.009,0.014000,-0.951000,0.271000,0.031000,-25.863000,0.855000,29.850000
1.016,-0.013000,-0.979000,0.267000,3.733000,-23.473000,-0.160000,29.800000
1.030,-0.042000,-0.991000,0.244000,4.443000,-22.458000,4.382000,29.850000
1.041,-0.096000,-1.003000,0.254000,3.244000,-30.183000,9.191000,29.850000
1.048,-0.117000,-0.956000,0.251000,-2.015000,-35.626000,13.214000,29.890000
1.060,-0.098000,-0.901000,0.250000,-5.527000,-40.771000,12.336000,29.990000
1.066,-0.078000,-0.920000,0.251000,-8.702000,-39.450000,7.748000,29.850000
1.079,-0.021000,-0.916000,0.271000,-8.382000,-31.756000,1.412000,29.940000
1.087,-0.007000,-0.946000,0.278000,-4.786000,-27.573000,-1.901000,29.990000
1.098,-0.045000,-0.952000,0.271000,-4.198000,-22.573000,-3.672000,29.890000
1.110,-0.069000,-0.960000,0.259000,-2.893000,-18.618000,-5.420000,29.890000
1.117,-0.092000,-0.961000,0.224000,-2.206000,-17.092000,-6.634000,29.940000
1.129,-0.072000,-0.936000,0.224000,-4.443000,-13.015000,-9.053000,29.890000
1.138,-0.061000,-0.956000,0.223000,-5.435000,-14.183000,-7.511000,29.800000
1.148,-0.023000,-0.936000,0.226000,-4.916000,-20.298000,-2.534000,29.940000
1.160,-0.011000,-0.914000,0.249000,-3.099000,-25.542000,2.214000,29.940000
1.167,0.000000,-0.912000,0.264000,-3.336000,-22.397000,2.481000,29.890000
1.180,0.009000,-0.925000,0.243000,-4.649000,-15.221000,0.221000,29.940000
1.187,0.022000,-0.940000,0.231000,-2.756000,-6.092000,-3.542000,29.940000
1.199,0.051000,-0.943000,0.237000,1.725000,7.809000,-9.916000,29.890000
1.206,0.043000,-0.937000,0.225000,4.985000,20.771000,-15.366000,29.800000
1.218,-0.010000,-0.932000,0.200000,6.328000,28.298000,-18.924000,29.850000
1.231,-0.057000,-0.940000,0.177000,7.481000,24.000000,-16.534000,29.940000
1.238,-0.075000,-0.964000,0.173000,7.992000,14.863000,-12.954000,29.890000
1.250,-0.059000,-0.966000,0.155000,8.107000,0.267000,-5.863000,29.890000
1.257,-0.035000,-0.962000,0.152000,7.588000,-6.198000,-1.763000,29.890000
1.269,0.004000,-0.967000,0.151000,7.771000,-9.863000,2.046000,29.940000
1.277,0.030000,-0.956000,0.166000,8.473000,-12.275000,5.061000,29.890000
1.290,0.042000,-0.965000,0.177000,8.366000,-15.069000,9.481000,29.890000
1.296,0.025000,-0.965000,0.182000,7.046000,-12.947000,11.939000,29.750000
1.308,0.011000,-0.995000,0.182000,7.443000,-14.542000,17.107000,29.940000
1.320,-0.018000,-0.966000,0.173000,5.695000,-19.527000,22.359000,29.890000
1.328,-0.046000,-0.948000,0.182000,3.718000,-18.542000,22.519000,29.940000
1.340,-0.068000,-0.952000,0.168000,3.206000,-17.847000,20.511000,29.940000
1.349,-0.080000,-0.961000,0.158000,4.702000,-20.527000,17.855000,29.890000
1.359,-0.073000,-0.973000,0.180000,8.786000,-24.183000,18.366000,29.890000
1.365,-0.069000,-0.980000,0.182000,12.229000,-25.649000,18.565000,29.850000
1.380,-0.064000,-0.982000,0.203000,16.038000,-26.130000,18.122000,29.850000
1.390,-0.057000,-0.970000,0.217000,17.748000,-23.076000,15.389000,29.890000
1.397,-0.081000,-0.942000,0.237000,20.916000,-23.534000,10.160000,29.890000
1.409,-0.098000,-0.922000,0.261000,18.206000,-19.107000,5.649000,29.890000
1.416,-0.080000,-0.936000,0.292000,19.603000,-18.458000,3.137000,29.850000
1.429,-0.035000,-0.938000,0.295000,19.893000,-21.740000,3.389000,29.890000
1.440,-0.004000,-0.981000,0.300000,21.763000,-19.282000,2.176000,29.800000
1.448,0.020000,-1.006000,0.306000,22.840000,-9.023000,-0.137000,29.850000
1.460,-0.002000,-1.003000,0.298000,23.618000,1.794000,-1.290000,29.940000
1.466,-0.049000,-0.979000,0.293000,24.176000,10.069000,-1.756000,29.890000
1.479,-0.093000,-0.942000,0.274000,20.595000,15.038000,-3.779000,29.890000
1.487,-0.124000,-0.952000,0.272000,21.214000,10.962000,-2.809000,29.850000
1.498,-0.110000,-0.952000,0.277000,22.504000,0.290000,1.023000,29.850000
1.511,-0.092000,-0.954000,0.276000,24.405000,-8.985000,3.817000,29.990000
1.518,-0.082000,-0.931000,0.290000,23.275000,-12.794000,5.023000,29.850000
1.530,-0.070000,-0.898000,0.305000,20.901000,-14.053000,6.786000,29.940000
1.537,-0.093000,-0.868000,0.312000,17.832000,-18.687000,10.221000,29.890000
1.549,-0.110000,-0.857000,0.336000,12.176000,-21.603000,12.580000,29.890000
1.556,-0.132000,-0.840000,0.322000,5.298000,-25.344000,12.809000,29.890000
1.568,-0.101000,-0.893000,0.315000,2.573000,-36.771000,15.649000,29.940000
1.580,-0.047000,-0.897000,0.303000,-0.992000,-42.336000,16.908000,29.990000
1.587,-0.055000,-0.898000,0.311000,-1.206000,-41.275000,15.298000,29.890000
1.599,-0.060000,-0.896000,0.300000,-1.321000,-39.221000,13.847000,29.940000
1.606,-0.066000,-0.858000,0.314000,-3.137000,-31.389000,10.511000,29.850000
1.618,-0.098000,-0.833000,0.312000,-5.824000,-29.145000,10.626000,29.890000
1.631,-0.066000,-0.826000,0.322000,-8.344000,-27.611000,10.893000,29.890000
1.638,-0.049000,-0.853000,0.337000,-9.588000,-24.985000,12.046000,29.940000
1.649,-0.034000,-0.837000,0.331000,-9.771000,-20.053000,12.664000,29.850000
1.656,-0.061000,-0.828000,0.314000,-10.794000,-15.420000,12.412000,29.890000
1.668,-0.074000,-0.844000,0.295000,-11.481000,-15.298000,11.145000,29.890000
1.680,-0.069000,-0.864000,0.294000,-10.985000,-18.244000,10.374000,29.940000
1.687,-0.070000,-0.889000,0.287000,-11.802000,-17.328000,7.389000,29.940000
1.699,-0.087000,-0.891000,0.287000,-9.466000,-22.107000,9.115000,29.890000
1.706,-0.086000,-0.887000,0.281000,-6.641000,-30.611000,9.794000,29.990000
1.718,-0.065000,-0.878000,0.288000,-2.748000,-40.626000,10.542000,29.850000
1.731,-0.033000,-0.870000,0.297000,-2.733000,-41.756000,7.916000,29.800000
1.739,0.001000,-0.893000,0.316000,-0.282000,-37.061000,5.122000,29.800000
1.750,0.030000,-0.919000,0.301000,4.397000,-32.519000,3.366000,29.850000
1.757,0.041000,-0.903000,0.302000,8.176000,-26.855000,1.122000,29.850000
1.769,0.042000,-0.895000,0.323000,12.450000,-23.527000,-3.221000,29.890000
1.779,0.039000,-0.880000,0.335000,14.550000,-21.672000,-3.618000,29.890000
1.789,0.045000,-0.894000,0.350000,15.908000,-20.351000,-3.565000,29.940000
1.795,0.060000,-0.918000,0.344000,15.855000,-20.664000,-0.733000,29.850000
1.808,0.060000,-0.948000,0.336000,14.595000,-12.756000,-2.817000,29.890000
1.820,0.042000,-0.968000,0.316000,13.969000,-4.550000,-2.267000,29.890000
1.828,0.026000,-0.948000,0.293000,13.053000,-3.000000,-1.206000,29.940000
1.840,0.024000,-0.938000,0.282000,13.122000,-4.954000,-1.260000,29.940000
1.847,0.027000,-0.939000,0.299000,16.061000,-7.489000,-0.076000,29.890000
1.859,0.049000,-0.950000,0.295000,16.931000,-8.733000,1.107000,29.890000
1.866,0.077000,-0.938000,0.303000,27.733000,-21.405000,1.603000,29.850000
1.879,0.037000,-0.926000,0.327000,33.000000,-32.855000,5.290000,29.890000
1.890,0.074000,-0.864000,0.359000,28.336000,-25.832000,2.015000,29.890000
1.898,0.057000,-0.856000,0.377000,30.366000,-27.542000,0.031000,29.940000
1.910,0.054000,-0.829000,0.405000,25.344000,-20.527000,-0.481000,29.850000
1.916,0.072000,-0.782000,0.416000,19.405000,-11.962000,-1.099000,29.990000
1.930,0.047000,-0.807000,0.444000,20.229000,-10.794000,2.847000,29.800000
1.938,0.084000,-0.859000,0.432000,16.710000,-2.947000,2.924000,29.850000
1.949,0.077000,-0.953000,0.422000,18.282000,5.260000,2.588000,29.940000
1.955,0.057000,-0.984000,0.383000,20.618000,13.221000,3.198000,29.890000
1.968,0.015000,-0.967000,0.327000,28.237000,14.496000,7.214000,29.890000
1.980,0.032000,-0.972000,0.275000,33.588000,12.603000,8.366000,29.850000
1.987,-0.010000,-0.939000,0.299000,35.405000,17.985000,9.550000,29.940000
2.000,-0.039000,-0.911000,0.286000,34.771000,20.275000,10.198000,29.890000
2.007,-0.070000,-0.897000,0.303000,34.550000,12.473000,13.901000,29.990000
2.019,-0.080000,-0.854000,0.316000,30.076000,9.137000,14.267000,29.990000
2.028,-0.112000,-0.846000,0.333000,26.603000,2.649000,14.046000,30.040000
2.039,-0.090000,-0.846000,0.347000,23.458000,-2.969000,14.382000,29.890000
2.050,-0.084000,-0.863000,0.349000,19.908000,-7.053000,13.924000,29.890000
2.057,-0.025000,-0.874000,0.344000,16.282000,-6.122000,12.863000,29.750000
2.070,0.011000,-0.885000,0.359000,16.672000,-3.534000,9.901000,29.850000
2.077,-0.024000,-0.902000,0.352000,13.405000,4.328000,8.237000,29.890000
2.089,-0.068000,-0.873000,0.348000,12.282000,5.481000,9.435000,29.850000
2.096,-0.114000,-0.860000,0.338000,12.252000,-5.366000,12.718000,29.850000
2.108,-0.125000,-0.856000,0.339000,11.611000,-14.214000,12.939000,29.890000
2.121,-0.122000,-0.876000,0.353000,11.160000,-17.550000,10.618000,29.890000
2.129,-0.102000,-0.880000,0.356000,10.466000,-19.160000,9.351000,29.850000
2.140,-0.116000,-0.898000,0.374000,11.275000,-22.710000,11.000000,29.940000
2.147,-0.138000,-0.904000,0.370000,13.145000,-28.244000,16.053000,29.890000
2.159,-0.143000,-0.834000,0.367000,14.267000,-41.710000,21.374000,29.800000
2.164,-0.139000,-0.814000,0.384000,15.649000,-49.405000,19.550000,29.890000
2.179,-0.097000,-0.827000,0.421000,16.374000,-50.534000,15.420000,29.850000
2.190,-0.069000,-0.863000,0.443000,22.206000,-53.237000,13.321000,29.890000
2.197,-0.038000,-0.895000,0.457000,18.885000,-47.641000,12.832000,29.890000
2.209,-0.014000,-0.890000,0.439000,20.885000,-39.748000,11.786000,30.040000
2.216,0.034000,-0.876000,0.427000,19.046000,-26.069000,5.802000,29.940000
2.230,0.040000,-0.900000,0.404000,20.420000,-16.031000,2.366000,29.890000
2.241,0.091000,-0.927000,0.359000,21.893000,-3.153000,1.847000,29.890000
2.248,0.085000,-0.956000,0.313000,27.084000,2.252000,2.618000,29.940000
2.260,0.092000,-0.994000,0.294000,34.427000,6.427000,7.145000,29.890000
2.267,0.059000,-0.962000,0.289000,42.115000,7.771000,13.344000,29.990000
2.280,-0.036000,-0.884000,0.288000,44.779000,-0.756000,20.389000,29.940000
2.288,-0.139000,-0.835000,0.303000,46.939000,-16.527000,28.061000,29.850000
2.299,-0.181000,-0.765000,0.340000,40.427000,-30.626000,33.038000,29.890000
2.311,-0.208000,-0.723000,0.361000,34.435000,-41.603000,31.687000,29.800000
2.318,-0.143000,-0.629000,0.407000,27.672000,-44.405000,25.641000,29.890000
2.330,-0.092000,-0.664000,0.483000,25.901000,-48.237000,15.992000,29.940000
2.337,-0.036000,-0.679000,0.513000,29.244000,-51.992000,11.458000,29.800000
2.349,0.026000,-0.709000,0.536000,29.855000,-44.130000,4.908000,29.800000
2.356,0.052000,-0.744000,0.524000,26.679000,-36.267000,2.565000,29.940000
2.368,0.054000,-0.734000,0.515000,22.855000,-32.244000,4.969000,29.850000
2.381,0.046000,-0.723000,0.541000,17.519000,-29.718000,1.069000,29.890000
2.388,0.083000,-0.696000,0.575000,12.618000,-32.595000,0.107000,29.890000
2.400,0.147000,-0.711000,0.631000,9.656000,-29.511000,-6.168000,29.850000
2.407,0.221000,-0.739000,0.678000,9.687000,-22.954000,-5.443000,29.940000
2.419,0.260000,-0.773000,0.687000,7.969000,-11.794000,0.015000,29.890000
2.428,0.244000,-0.782000,0.687000,5.802000,2.947000,3.511000,29.800000
2.439,0.194000,-0.825000,0.633000,-1.427000,12.931000,11.366000,29.850000
2.447,0.087000,-0.807000,0.604000,-5.748000,19.099000,19.244000,29.890000
2.458,-0.033000,-0.799000,0.522000,-13.450000,17.397000,25.740000,29.890000
2.470,-0.150000,-0.755000,0.456000,-18.939000,-6.687000,34.473000,29.890000
2.478,-0.194000,-0.755000,0.463000,-20.626000,-34.359000,31.656000,29.940000
2.489,-0.022000,-0.802000,0.527000,-8.595000,-38.046000,18.740000,29.890000
2.497,0.157000,-0.859000,0.596000,-1.656000,-31.672000,10.725000,29.890000
2.508,0.221000,-0.902000,0.581000,10.840000,-21.191000,7.969000,29.940000
2.514,0.238000,-0.908000,0.571000,26.145000,-3.389000,7.878000,29.940000
2.529,0.218000,-0.886000,0.585000,35.237000,10.664000,9.504000,29.990000
2.540,0.094000,-0.848000,0.561000,35.122000,16.489000,11.466000,29.890000
2.548,0.010000,-0.777000,0.556000,32.771000,16.489000,9.366000,29.940000
2.560,-0.083000,-0.760000,0.561000,27.198000,10.763000,6.534000,29.850000
2.566,-0.099000,-0.737000,0.534000,20.443000,-4.427000,3.878000,29.990000
2.579,-0.031000,-0.763000,0.558000,16.710000,-20.191000,6.489000,29.890000
2.588,0.019000,-0.801000,0.554000,16.550000,-31.015000,12.038000,29.850000
2.599,0.071000,-0.842000,0.543000,18.267000,-34.962000,16.076000,29.890000
2.610,0.096000,-0.811000,0.574000,19.924000,-25.412000,13.550000,29.990000
2.617,0.087000,-0.812000,0.598000,21.084000,-10.557000,9.603000,29.990000
2.630,0.042000,-0.778000,0.607000,24.267000,-1.908000,8.321000,29.940000
2.637,0.002000,-0.729000,0.607000,24.031000,0.733000,6.183000,29.800000
2.649,-0.020000,-0.711000,0.577000,15.763000,-1.985000,3.206000,29.890000
2.656,-0.052000,-0.698000,0.552000,10.931000,-12.458000,-1.321000,30.040000
2.668,-0.118000,-0.724000,0.541000,6.374000,-21.115000,-5.282000,29.850000
2.680,-0.146000,-0.744000,0.543000,5.061000,-25.893000,-10.908000,29.990000
2.688,-0.127000,-0.744000,0.566000,6.687000,-28.069000,-15.168000,29.890000
2.699,-0.055000,-0.732000,0.606000,4.183000,-14.321000,-20.947000,29.940000
2.706,-0.026000,-0.755000,0.611000,5.489000,-8.756000,-17.557000,29.940000
2.719,0.005000,-0.755000,0.591000,8.382000,-4.977000,-14.641000,29.890000
2.728,0.045000,-0.786000,0.584000,10.542000,-3.542000,-9.595000,29.890000
2.739,0.024000,-0.762000,0.569000,7.092000,-12.359000,-2.443000,30.040000
2.750,-0.002000,-0.688000,0.569000,6.046000,-27.832000,3.466000,29.890000
2.757,-0.043000,-0.603000,0.675000,-2.779000,-50.405000,10.458000,29.890000
2.769,-0.001000,-0.611000,0.723000,-12.366000,-56.397000,14.344000,29.890000
2.778,0.154000,-0.653000,0.831000,-24.183000,-33.992000,9.092000,29.940000
2.789,0.165000,-0.692000,0.837000,-30.595000,-2.191000,7.420000,29.890000
2.797,0.212000,-0.673000,0.752000,-34.267000,29.931000,5.573000,29.890000
2.808,0.105000,-0.695000,0.715000,-39.267000,58.641000,6.359000,29.940000
2.820,-0.076000,-0.724000,0.573000,-40.427000,69.634000,8.221000,29.850000
2.828,-0.193000,-0.757000,0.498000,-39.420000,65.450000,7.611000,29.890000
2.839,-0.264000,-0.804000,0.462000,-32.863000,57.351000,1.321000,29.890000
2.847,-0.220000,-0.841000,0.436000,-27.160000,49.473000,-8.351000,29.940000
2.858,-0.168000,-0.871000,0.438000,-20.168000,49.603000,-21.954000,29.850000
2.870,-0.123000,-0.883000,0.393000,-11.565000,47.267000,-30.649000,29.990000
2.878,-0.062000,-0.900000,0.378000,-2.832000,43.290000,-33.855000,29.990000
2.890,-0.076000,-0.915000,0.327000,2.710000,31.916000,-30.229000,29.850000
2.897,-0.076000,-0.919000,0.287000,8.061000,15.504000,-25.328000,29.940000
2.909,-0.016000,-0.941000,0.291000,17.809000,0.763000,-20.901000,29.890000
2.914,0.122000,-0.980000,0.312000,25.840000,-1.695000,-22.252000,29.990000
2.930,0.233000,-0.985000,0.396000,37.344000,-1.366000,-20.336000,29.940000
2.941,0.215000,-0.912000,0.457000,43.763000,8.519000,-19.313000,29.890000
2.948,0.100000,-0.806000,0.528000,43.817000,7.725000,-13.038000,29.890000
2.959,-0.068000,-0.736000,0.523000,33.321000,-12.550000,-0.137000,29.940000
2.966,-0.105000,-0.694000,0.547000,15.336000,-21.534000,3.733000,29.940000
2.980,-0.090000,-0.713000,0.566000,2.771000,-33.649000,7.351000,29.890000
2.985,0.006000,-0.705000,0.564000,-4.718000,-40.687000,4.649000,29.890000
2.999,0.047000,-0.767000,0.583000,-8.840000,-39.603000,0.450000,29.940000
3.010,0.055000,-0.809000,0.598000,-8.863000,-26.473000,-2.603000,29.850000
3.017,0.042000,-0.800000,0.593000,-7.916000,-12.924000,-4.550000,29.890000
3.030,0.052000,-0.791000,0.581000,-10.076000,5.939000,-9.076000,29.890000
3.038,0.069000,-0.793000,0.548000,-10.840000,18.206000,-13.603000,29.940000
3.049,0.115000,-0.804000,0.522000,-10.710000,26.275000,-17.107000,29.850000
3.061,0.146000,-0.862000,0.517000,-1.725000,35.527000,-20.427000,29.890000
3.067,0.125000,-0.877000,0.501000,2.008000,38.786000,-20.267000,29.890000
3.080,0.048000,-0.876000,0.506000,9.092000,31.947000,-17.061000,29.940000
3.088,-0.048000,-0.793000,0.534000,11.145000,20.191000,-12.000000,29.890000
3.099,-0.060000,-0.713000,0.557000,10.336000,16.107000,-10.435000,29.990000
3.106,0.032000,-0.712000,0.571000,5.244000,21.130000,-13.840000,29.850000
3.118,0.097000,-0.762000,0.583000,1.053000,23.985000,-15.382000,29.850000
3.131,0.094000,-0.777000,0.571000,0.725000,27.878000,-15.634000,29.990000
3.139,0.068000,-0.760000,0.594000,0.489000,28.374000,-14.015000,29.890000
3.150,0.054000,-0.734000,0.613000,-3.053000,31.496000,-13.038000,29.940000
3.157,-0.004000,-0.736000,0.656000,-6.496000,30.840000,-10.969000,29.940000
3.169,-0.025000,-0.661000,0.660000,-16.481000,36.939000,-14.672000,29.990000
3.174,-0.016000,-0.669000,0.639000,-27.221000,43.450000,-19.191000,29.800000
3.188,0.037000,-0.726000,0.601000,-31.481000,36.214000,-17.137000,29.940000
3.200,0.091000,-0.745000,0.564000,-31.534000,35.061000,-19.618000,29.940000
3.207,0.056000,-0.769000,0.524000,-29.206000,41.069000,-22.069000,29.890000
3.219,0.019000,-0.780000,0.513000,-27.954000,41.939000,-22.244000,29.800000
3.230,0.019000,-0.735000,0.563000,-29.275000,35.733000,-21.290000,29.850000
3.239,0.053000,-0.701000,0.582000,-34.084000,29.618000,-19.420000,29.890000
3.250,0.146000,-0.704000,0.579000,-36.695000,22.267000,-15.954000,29.990000
3.257,0.270000,-0.738000,0.535000,-44.305000,20.756000,-10.099000,29.940000
3.269,0.370000,-0.755000,0.499000,-56.939000,29.908000,-2.672000,29.940000
3.278,0.334000,-0.847000,0.442000,-59.802000,49.015000,4.672000,29.890000
3.289,0.164000,-0.882000,0.384000,-57.756000,61.260000,14.504000,29.990000
3.301,0.027000,-0.871000,0.323000,-59.748000,59.389000,22.931000,29.940000
3.307,-0.054000,-0.872000,0.339000,-58.496000,59.855000,24.466000,29.940000
3.320,-0.107000,-0.828000,0.342000,-60.344000,52.824000,25.481000,29.890000
3.328,-0.116000,-0.769000,0.417000,-55.298000,41.458000,23.756000,29.890000
3.339,-0.140000,-0.729000,0.454000,-55.229000,33.145000,21.359000,29.940000
3.351,-0.133000,-0.709000,0.450000,-54.466000,27.420000,15.084000,30.040000
3.357,-0.075000,-0.702000,0.453000,-52.015000,22.046000,7.603000,29.890000
3.370,-0.064000,-0.754000,0.446000,-47.412000,20.817000,-1.954000,29.990000
3.378,-0.039000,-0.819000,0.416000,-43.695000,20.351000,-8.160000,29.750000
3.390,0.034000,-0.872000,0.399000,-31.573000,24.015000,-15.504000,29.890000
3.396,0.097000,-0.891000,0.424000,-18.885000,35.763000,-20.603000,29.990000
3.408,0.151000,-0.873000,0.438000,-6.160000,47.634000,-21.466000,29.940000
3.420,0.167000,-0.879000,0.453000,2.779000,60.290000,-19.740000,29.940000
3.428,0.125000,-0.886000,0.463000,4.466000,67.611000,-15.885000,29.890000
3.440,0.040000,-0.882000,0.443000,-0.527000,64.115000,-11.282000,29.890000
3.447,-0.048000,-0.873000,0.422000,-7.107000,55.565000,-7.443000,29.940000
3.459,-0.115000,-0.855000,0.398000,-13.389000,44.107000,-6.344000,29.940000
3.471,-0.029000,-0.778000,0.426000,-24.786000,54.321000,-20.916000,29.890000
3.478,0.008000,-0.824000,0.462000,-33.130000,73.618000,-34.397000,29.890000
3.490,0.036000,-0.903000,0.446000,-26.954000,71.519000,-31.061000,29.940000
3.497,0.097000,-0.942000,0.424000,-16.069000,74.443000,-24.939000,29.940000
3.509,0.079000,-0.966000,0.409000,-13.901000,80.374000,-17.748000,29.890000
3.514,-0.003000,-0.908000,0.371000,-16.985000,77.885000,-9.695000,29.890000
3.528,-0.108000,-0.862000,0.362000,-16.641000,60.069000,-0.076000,29.940000
3.540,-0.161000,-0.809000,0.319000,-18.458000,39.008000,8.321000,29.940000
3.548,-0.160000,-0.828000,0.318000,-18.069000,24.588000,9.443000,29.890000
3.559,-0.123000,-0.896000,0.350000,-20.229000,27.496000,4.244000,29.850000
3.566,-0.119000,-0.902000,0.327000,-19.580000,26.656000,-0.008000,29.940000
3.580,-0.104000,-0.904000,0.326000,-16.824000,24.641000,1.466000,29.800000
3.592,-0.108000,-0.903000,0.351000,-16.229000,28.947000,1.771000,29.990000
3.598,-0.104000,-0.885000,0.329000,-17.244000,34.076000,1.634000,29.940000
3.609,-0.109000,-0.822000,0.324000,-22.313000,41.221000,-0.618000,29.850000
3.616,-0.146000,-0.803000,0.347000,-22.962000,43.389000,-4.214000,29.990000
3.629,-0.171000,-0.854000,0.365000,-23.641000,42.763000,-4.908000,29.990000
3.641,-0.199000,-0.917000,0.349000,-18.290000,33.588000,-4.092000,29.940000
3.648,-0.269000,-0.919000,0.305000,-18.000000,17.847000,1.053000,29.850000
3.660,-0.277000,-0.908000,0.275000,-18.160000,7.145000,0.565000,29.890000
3.667,-0.192000,-0.895000,0.275000,-20.672000,6.832000,-5.656000,29.890000
3.679,-0.156000,-0.851000,0.265000,-25.160000,9.885000,-9.939000,29.940000
3.688,-0.147000,-0.774000,0.290000,-22.695000,11.756000,-10.855000,29.890000
3.698,-0.121000,-0.787000,0.310000,-20.382000,15.573000,-11.748000,29.890000
3.710,-0.111000,-0.796000,0.325000,-22.046000,26.023000,-11.634000,29.850000
3.716,-0.185000,-0.821000,0.312000,-26.153000,37.046000,-12.130000,29.850000
3.729,-0.290000,-0.838000,0.233000,-32.496000,45.611000,-14.351000,29.990000
3.737,-0.397000,-0.835000,0.133000,-36.435000,40.282000,-15.305000,29.890000
3.748,-0.462000,-0.862000,0.092000,-37.000000,23.466000,-17.710000,29.850000
3.760,-0.429000,-0.919000,0.031000,-35.435000,5.076000,-21.153000,29.940000
3.766,-0.366000,-0.942000,0.037000,-29.000000,-15.527000,-26.511000,29.890000
3.780,-0.263000,-0.959000,0.079000,-14.687000,-27.305000,-29.153000,29.990000
3.791,-0.123000,-0.920000,0.185000,-7.450000,-35.389000,-28.237000,29.850000
3.798,-0.056000,-0.917000,0.261000,-6.298000,-38.985000,-25.802000,29.940000
3.809,-0.034000,-0.889000,0.297000,-13.969000,-46.450000,-19.473000,29.800000
3.816,-0.022000,-0.888000,0.336000,-21.450000,-40.626000,-21.038000,29.890000
3.830,-0.005000,-0.902000,0.335000,-27.351000,-34.733000,-24.603000,29.890000
3.840,0.056000,-0.916000,0.321000,-28.252000,-23.427000,-32.656000,29.850000
3.847,0.091000,-0.956000,0.330000,-24.260000,-12.931000,-38.794000,29.990000
3.859,0.149000,-0.980000,0.302000,-19.183000,-0.542000,-42.809000,29.990000
3.866,0.169000,-0.995000,0.301000,-12.969000,6.809000,-41.481000,29.940000
3.880,0.188000,-1.030000,0.315000,-10.244000,4.229000,-32.153000,29.940000
3.892,0.168000,-1.013000,0.287000,-12.137000,0.893000,-21.069000,29.990000
3.898,0.130000,-0.935000,0.283000,-17.061000,7.649000,-17.298000,29.800000
3.910,0.081000,-0.915000,0.282000,-22.344000,8.580000,-16.008000,30.040000
3.916,0.060000,-0.888000,0.258000,-27.557000,11.511000,-18.863000,29.940000
3.929,0.103000,-0.877000,0.306000,-23.885000,16.000000,-23.870000,29.890000
3.941,0.145000,-0.910000,0.299000,-23.802000,19.206000,-22.939000,29.940000
3.948,0.141000,-0.967000,0.306000,-23.008000,21.099000,-20.916000,29.940000
3.960,0.135000,-0.972000,0.278000,-24.450000,23.664000,-18.947000,29.890000
3.966,0.108000,-0.933000,0.251000,-26.374000,21.389000,-12.237000,29.990000
3.979,0.096000,-0.944000,0.225000,-28.985000,23.954000,-16.656000,29.990000
3.987,0.120000,-0.909000,0.213000,-31.008000,24.779000,-19.023000,29.940000
3.998,0.118000,-0.923000,0.201000,-29.863000,31.168000,-24.061000,29.990000
4.010,0.169000,-0.939000,0.219000,-26.504000,38.626000,-25.038000,29.890000
4.017,0.138000,-1.003000,0.217000,-21.542000,38.611000,-22.313000,30.040000
4.030,0.103000,-1.019000,0.212000,-20.664000,42.359000,-19.679000,29.940000
4.039,0.051000,-1.003000,0.177000,-22.618000,44.336000,-20.359000,29.990000
4.048,0.036000,-0.983000,0.150000,-23.443000,39.901000,-19.824000,29.890000
4.060,0.056000,-0.921000,0.136000,-25.427000,39.122000,-20.763000,29.940000
4.067,0.076000,-0.945000,0.120000,-22.672000,36.458000,-20.977000,29.940000
4.079,0.082000,-1.027000,0.129000,-20.153000,26.282000,-15.595000,29.890000
4.088,0.108000,-1.042000,0.147000,-17.084000,29.153000,-14.466000,29.890000
4.099,0.110000,-1.101000,0.116000,-16.168000,29.794000,-12.275000,29.940000
4.110,0.117000,-1.076000,0.105000,-17.321000,32.000000,-10.733000,29.940000
4.117,0.141000,-1.043000,0.108000,-17.542000,42.519000,-13.977000,29.990000
4.130,0.164000,-1.014000,0.083000,-12.977000,48.298000,-15.565000,29.990000
4.139,0.150000,-0.981000,0.099000,-8.496000,48.076000,-12.763000,29.940000
4.149,0.151000,-1.012000,0.146000,-1.969000,50.031000,-6.916000,29.990000
4.154,0.102000,-1.005000,0.154000,-0.198000,55.359000,-3.168000,29.990000
4.168,0.089000,-0.989000,0.118000,-3.954000,60.053000,-2.099000,29.940000
4.181,0.086000,-1.022000,0.112000,-5.298000,58.985000,0.977000,29.940000
4.188,0.086000,-1.021000,0.086000,-5.893000,59.863000,3.611000,29.890000
4.200,0.050000,-1.001000,0.062000,-5.366000,59.718000,2.473000,29.890000
4.206,-0.033000,-0.990000,0.073000,-4.954000,58.008000,4.855000,29.940000
4.219,-0.077000,-0.966000,0.078000,-5.954000,52.420000,6.214000,29.940000
4.230,-0.114000,-0.963000,0.083000,-8.771000,40.389000,8.771000,29.890000
4.238,-0.134000,-0.938000,0.094000,-12.145000,29.840000,10.603000,29.890000
4.251,-0.122000,-0.941000,0.087000,-17.130000,19.634000,12.397000,29.940000
4.257,-0.085000,-0.944000,0.082000,-20.771000,12.656000,13.008000,29.940000
4.269,-0.034000,-0.957000,0.074000,-22.305000,14.023000,11.489000,29.890000
4.278,0.006000,-0.962000,0.076000,-21.511000,17.977000,10.962000,29.890000
4.289,-0.005000,-0.964000,0.080000,-17.267000,18.183000,11.130000,29.890000
4.301,0.001000,-0.962000,0.059000,-13.168000,15.924000,11.489000,29.940000
4.308,-0.011000,-0.931000,0.078000,-10.328000,14.443000,8.405000,29.990000
4.320,-0.003000,-0.932000,0.076000,-8.771000,15.008000,5.214000,29.890000
4.328,0.019000,-0.911000,0.066000,-8.000000,17.588000,2.000000,29.850000
4.340,0.036000,-0.919000,0.082000,-6.626000,19.397000,0.122000,29.940000
4.347,0.037000,-0.948000,0.104000,-4.168000,22.908000,-0.183000,29.800000
4.359,0.006000,-0.971000,0.116000,-1.618000,26.962000,-0.809000,29.890000
4.365,-0.033000,-0.997000,0.114000,-1.366000,24.031000,-0.924000,30.040000
4.380,-0.024000,-0.984000,0.095000,-2.473000,19.290000,-3.069000,30.040000
4.392,0.023000,-0.987000,0.117000,-3.183000,16.260000,-4.290000,29.890000
4.398,0.087000,-1.013000,0.116000,-1.695000,14.687000,-1.443000,29.990000
4.410,0.127000,-0.982000,0.103000,0.374000,14.557000,1.832000,29.940000
4.417,0.099000,-0.966000,0.131000,0.458000,13.389000,7.290000,30.040000
4.429,0.049000,-0.988000,0.139000,0.176000,10.763000,12.397000,29.990000
4.438,-0.010000,-0.971000,0.130000,-2.275000,8.840000,13.954000,29.990000
4.450,-0.053000,-0.956000,0.135000,-3.496000,11.542000,10.473000,29.940000
4.455,-0.016000,-0.946000,0.147000,-5.382000,11.511000,6.359000,29.990000
4.468,0.075000,-0.955000,0.131000,-5.542000,16.344000,5.443000,29.990000
4.481,0.074000,-0.950000,0.145000,-5.046000,22.015000,5.786000,29.940000
4.488,-0.002000,-1.013000,0.127000,-0.405000,29.534000,3.656000,29.940000
4.500,-0.083000,-1.006000,0.116000,3.099000,32.458000,-0.298000,30.080000
4.507,-0.107000,-0.994000,0.104000,2.420000,27.718000,-0.084000,29.890000
4.519,-0.141000,-0.934000,0.102000,-2.298000,21.252000,-0.244000,29.940000
4.530,-0.094000,-0.875000,0.139000,-10.137000,14.244000,1.679000,29.940000
4.540,-0.006000,-0.881000,0.159000,-20.908000,9.870000,3.931000,29.890000
4.551,0.033000,-0.933000,0.155000,-27.809000,6.336000,5.702000,29.890000
4.558,0.013000,-0.990000,0.087000,-24.695000,3.756000,8.580000,29.940000
4.570,-0.011000,-1.054000,0.036000,-21.008000,-0.107000,11.191000,30.040000
4.580,-0.070000,-1.086000,-0.008000,-15.038000,2.740000,9.779000,29.890000
4.589,-0.103000,-1.093000,0.003000,-10.092000,3.351000,7.473000,29.890000
4.597,-0.093000,-1.044000,-0.000000,-5.626000,-0.282000,5.695000,29.890000
4.609,-0.011000,-1.039000,0.033000,-1.992000,9.947000,3.198000,29.940000
4.615,-0.003000,-1.034000,0.025000,6.412000,3.298000,3.573000,29.890000
4.629,0.029000,-1.027000,0.042000,12.443000,4.595000,4.458000,29.990000
4.641,0.017000,-1.039000,0.103000,14.412000,12.023000,7.916000,30.040000
4.648,-0.035000,-1.038000,0.119000,14.015000,16.122000,10.977000,30.040000
4.660,-0.093000,-1.031000,0.105000,9.107000,13.298000,15.046000,29.990000
4.667,-0.149000,-0.999000,0.086000,5.618000,12.099000,14.420000,29.940000
4.679,-0.146000,-0.999000,0.071000,3.519000,8.511000,12.382000,29.940000
4.687,-0.117000,-1.030000,0.064000,4.779000,0.504000,11.252000,29.990000
4.701,-0.088000,-1.066000,0.082000,8.840000,-2.649000,10.466000,29.890000
4.707,-0.069000,-1.072000,0.096000,13.260000,-2.718000,9.130000,29.940000
4.718,-0.062000,-1.054000,0.118000,15.695000,-3.466000,8.954000,29.940000
4.730,-0.043000,-1.014000,0.135000,14.557000,2.756000,5.481000,29.990000
4.738,-0.012000,-0.964000,0.165000,10.122000,12.748000,-0.344000,29.890000
4.750,-0.001000,-0.943000,0.162000,6.198000,21.397000,-4.252000,29.940000
4.756,-0.009000,-0.917000,0.152000,1.702000,21.450000,-4.565000,29.940000
4.769,0.005000,-0.888000,0.159000,-4.527000,19.153000,-3.015000,29.990000
4.780,-0.020000,-0.899000,0.156000,-11.344000,15.000000,-0.435000,29.990000
4.789,-0.031000,-0.941000,0.168000,-15.351000,3.740000,6.282000,29.940000
4.801,-0.041000,-0.961000,0.148000,-17.733000,-7.634000,10.908000,29.990000
4.807,-0.082000,-1.009000,0.144000,-17.931000,-11.817000,11.374000,30.080000
4.819,-0.043000,-1.041000,0.110000,-14.656000,-6.763000,7.481000,30.040000
4.828,-0.031000,-1.065000,0.085000,-9.977000,-3.634000,5.122000,30.040000
4.840,0.007000,-1.058000,0.088000,-4.962000,-2.809000,4.481000,29.890000
4.846,0.062000,-1.028000,0.119000,-4.427000,2.031000,2.267000,29.990000
4.858,0.026000,-1.063000,0.123000,-3.969000,-3.695000,7.489000,30.040000
4.871,0.050000,-1.072000,0.122000,-3.557000,-4.992000,10.710000,29.940000
4.880,0.039000,-1.059000,0.132000,-4.168000,-2.260000,12.305000,29.990000
4.890,-0.008000,-1.058000,0.144000,-4.145000,-0.603000,12.969000,29.990000
4.898,0.019000,-1.083000,0.161000,-2.855000,-0.595000,15.733000,29.990000
4.909,0.069000,-1.112000,0.162000,-0.588000,2.176000,19.046000,30.040000
4.917,0.043000,-1.127000,0.131000,5.191000,9.802000,23.107000,29.890000
4.929,0.002000,-1.104000,0.101000,11.191000,11.893000,27.481000,29.990000
4.938,-0.070000,-1.119000,0.096000,18.458000,7.634000,30.008000,29.940000
4.948,-0.125000,-1.115000,0.089000,23.672000,-0.137000,30.740000,30.040000
4.960,-0.113000,-1.083000,0.109000,25.565000,-7.420000,28.824000,29.990000
4.967,-0.093000,-1.047000,0.134000,21.733000,-0.969000,23.252000,29.990000
4.980,-0.122000,-1.016000,0.125000,18.084000,2.168000,21.573000,29.940000
4.988,-0.152000,-1.011000,0.140000,18.076000,2.252000,19.382000,29.990000
4.999,-0.157000,-1.041000,0.159000,21.069000,7.084000,15.450000,29.890000
5.006,-0.158000,-1.068000,0.139000,24.328000,5.527000,14.198000,29.940000
5.018,-0.183000,-1.098000,0.147000,31.328000,5.969000,12.176000,30.040000
5.032,-0.215000,-1.106000,0.147000,35.969000,6.649000,10.458000,29.990000
5.038,-0.233000,-1.118000,0.157000,37.809000,1.908000,8.992000,29.990000
5.051,-0.256000,-1.091000,0.146000,39.397000,-1.260000,6.718000,29.990000
5.057,-0.228000,-1.035000,0.178000,38.588000,-0.618000,0.573000,29.940000
5.069,-0.209000,-1.015000,0.223000,40.237000,8.198000,-9.939000,29.990000
5.080,-0.206000,-0.988000,0.229000,39.443000,12.176000,-17.687000,30.080000
5.089,-0.181000,-0.939000,0.259000,32.718000,18.366000,-30.489000,30.040000
5.101,-0.216000,-0.983000,0.267000,25.435000,20.244000,-38.458000,30.040000
5.107,-0.173000,-1.032000,0.282000,23.779000,8.511000,-40.000000,29.990000
5.120,-0.135000,-1.038000,0.289000,24.908000,6.863000,-40.626000,29.990000
5.130,-0.094000,-1.044000,0.294000,30.244000,15.344000,-43.031000,29.940000
5.139,-0.044000,-1.013000,0.295000,28.351000,19.779000,-42.321000,30.040000
5.147,-0.003000,-0.949000,0.329000,20.794000,24.389000,-42.840000,29.890000
5.157,-0.024000,-0.914000,0.305000,12.221000,21.458000,-39.702000,30.040000
5.170,-0.014000,-0.894000,0.263000,-3.191000,8.107000,-33.733000,29.940000
5.180,-0.068000,-0.876000,0.230000,-20.305000,-0.954000,-28.595000,29.890000
5.189,-0.063000,-0.862000,0.183000,-29.809000,-15.198000,-22.053000,29.990000
5.201,-0.044000,-0.871000,0.180000,-33.603000,-25.794000,-18.076000,29.990000
5.207,0.016000,-0.890000,0.185000,-36.679000,-20.435000,-19.985000,29.940000
5.220,0.074000,-0.923000,0.147000,-35.748000,-9.901000,-20.595000,29.990000
5.228,0.093000,-0.942000,0.115000,-32.282000,4.962000,-20.672000,29.990000
5.239,0.083000,-0.950000,0.083000,-25.137000,21.649000,-16.435000,29.940000
5.246,0.029000,-0.941000,0.056000,-15.351000,26.107000,-9.466000,29.940000
5.258,-0.007000,-0.894000,0.011000,-6.863000,24.069000,-8.053000,29.990000
5.270,-0.009000,-0.863000,0.035000,-6.053000,28.153000,-14.824000,29.990000
5.278,-0.016000,-0.863000,0.035000,-4.985000,29.473000,-24.573000,29.940000
5.289,-0.015000,-0.876000,0.043000,-4.939000,27.405000,-32.145000,29.940000
5.297,-0.010000,-0.902000,0.043000,-8.908000,31.725000,-39.931000,30.080000
5.308,0.006000,-0.949000,0.023000,-13.176000,30.420000,-44.511000,29.990000
5.320,0.029000,-0.967000,0.030000,-14.916000,24.580000,-52.176000,30.040000
5.330,0.019000,-1.019000,0.023000,-17.237000,19.847000,-56.718000,30.040000
5.339,0.095000,-1.063000,0.049000,-18.817000,21.275000,-57.420000,30.080000
5.348,0.149000,-1.156000,0.102000,-15.542000,18.168000,-51.198000,30.080000
5.358,0.198000,-1.157000,0.109000,-9.107000,14.183000,-41.802000,30.040000
5.371,0.219000,-1.141000,0.152000,-5.366000,22.397000,-30.351000,29.990000
5.379,0.225000,-1.117000,0.161000,-2.489000,34.977000,-21.718000,29.990000
5.391,0.197000,-1.088000,0.154000,-0.901000,41.969000,-17.840000,30.040000
5.397,0.193000,-1.059000,0.174000,-2.595000,50.282000,-17.779000,30.040000
5.409,0.167000,-1.045000,0.182000,-5.023000,54.756000,-17.756000,30.080000
5.416,0.115000,-1.051000,0.157000,-8.595000,53.634000,-14.664000,30.080000
5.429,0.086000,-1.064000,0.153000,-10.344000,53.557000,-11.328000,29.940000
5.441,0.055000,-1.077000,0.134000,-7.595000,50.427000,-7.221000,30.130000
5.448,0.044000,-1.082000,0.148000,-2.588000,45.870000,-4.870000,29.890000
5.459,0.000000,-1.098000,0.125000,1.771000,38.076000,-1.038000,29.990000
5.467,-0.009000,-1.108000,0.108000,2.534000,32.611000,1.351000,29.940000
5.479,-0.014000,-1.113000,0.082000,6.130000,22.870000,4.756000,30.040000
5.488,0.059000,-1.088000,0.106000,3.008000,24.656000,-5.183000,29.990000
5.499,0.067000,-1.093000,0.121000,-0.244000,32.046000,-13.168000,29.990000
5.505,0.011000,-1.102000,0.115000,5.786000,25.756000,-10.015000,29.940000
5.518,0.023000,-1.067000,0.117000,11.160000,23.099000,-9.573000,29.990000
5.530,0.058000,-1.054000,0.095000,14.824000,20.115000,-9.519000,29.990000
5.539,0.072000,-1.022000,0.091000,16.427000,16.893000,-7.282000,30.040000
5.551,0.082000,-0.988000,0.093000,17.740000,14.695000,-3.481000,30.040000
5.557,0.104000,-0.946000,0.070000,19.389000,11.679000,-0.137000,30.080000
5.569,0.101000,-0.932000,0.062000,20.229000,10.855000,0.954000,29.990000
5.578,0.118000,-0.920000,0.083000,25.336000,14.733000,2.466000,29.940000
5.588,0.122000,-0.926000,0.091000,32.840000,10.832000,6.053000,30.040000
5.597,0.151000,-0.912000,0.094000,40.321000,11.809000,8.137000,29.990000
5.608,0.131000,-0.880000,0.108000,44.626000,12.748000,10.893000,29.990000
5.620,0.192000,-0.948000,0.134000,48.183000,21.687000,11.618000,30.040000
5.628,0.275000,-0.993000,0.166000,50.855000,39.588000,6.885000,29.940000
5.640,0.318000,-1.052000,0.181000,54.985000,63.588000,-1.260000,29.990000
5.647,0.346000,-1.086000,0.191000,60.313000,101.084000,-13.977000,29.990000
5.659,0.345000,-1.098000,0.186000,66.267000,143.809000,-27.107000,30.040000
5.664,0.315000,-1.097000,0.202000,70.290000,176.908000,-44.519000,29.990000
5.679,0.245000,-1.084000,0.167000,69.107000,202.863000,-55.817000,29.990000
5.690,0.138000,-1.088000,0.144000,68.573000,220.473000,-57.962000,30.040000
5.698,0.062000,-1.055000,0.122000,68.916000,228.122000,-56.061000,29.940000
5.709,0.004000,-1.027000,0.098000,66.076000,232.275000,-50.985000,30.080000
5.716,-0.077000,-0.986000,0.101000,61.870000,225.237000,-42.595000,29.990000
5.728,-0.136000,-0.949000,0.108000,57.053000,210.328000,-37.527000,30.040000
5.740,-0.210000,-0.933000,0.143000,54.710000,192.267000,-32.733000,30.040000
5.747,-0.261000,-0.938000,0.162000,52.397000,167.962000,-25.153000,29.990000
5.759,-0.267000,-0.924000,0.191000,50.794000,142.069000,-20.817000,30.080000
5.771,-0.292000,-0.913000,0.227000,48.718000,118.664000,-18.588000,30.040000
5.778,-0.316000,-0.909000,0.255000,48.267000,94.038000,-11.885000,30.040000
5.790,-0.319000,-0.887000,0.288000,46.504000,70.183000,-6.863000,29.990000
5.798,-0.293000,-0.882000,0.310000,45.122000,48.397000,-1.832000,29.990000
5.809,-0.257000,-0.879000,0.352000,43.634000,29.595000,3.450000,29.940000
5.816,-0.205000,-0.860000,0.390000,41.046000,18.679000,4.695000,30.130000
5.830,-0.193000,-0.842000,0.426000,35.137000,14.664000,6.153000,29.990000
5.842,-0.205000,-0.835000,0.422000,30.458000,11.489000,7.481000,30.040000
5.848,-0.203000,-0.829000,0.419000,26.328000,8.443000,8.275000,29.940000
5.860,-0.172000,-0.837000,0.411000,23.557000,4.504000,7.038000,29.990000
5.867,-0.160000,-0.851000,0.416000,23.595000,-3.908000,3.672000,29.990000
5.880,-0.149000,-0.871000,0.431000,26.702000,-9.557000,0.427000,30.040000
5.888,-0.147000,-0.867000,0.410000,27.237000,-9.809000,-3.221000,29.940000
5.899,-0.115000,-0.875000,0.425000,34.405000,-8.992000,-7.542000,30.080000
5.904,-0.099000,-0.851000,0.436000,39.672000,-9.084000,-11.382000,29.990000
5.918,-0.087000,-0.853000,0.463000,41.870000,-10.985000,-12.595000,30.130000
5.930,-0.043000,-0.852000,0.461000,42.130000,-15.008000,-14.878000,29.940000
5.939,-0.035000,-0.833000,0.493000,43.840000,-16.649000,-15.061000,30.080000
5.948,-0.011000,-0.833000,0.471000,42.229000,-13.359000,-15.450000,29.990000
5.961,0.030000,-0.851000,0.468000,40.855000,-13.992000,-12.611000,30.080000
5.967,0.038000,-0.847000,0.461000,34.763000,-17.267000,-14.099000,30.040000
5.980,-0.025000,-0.871000,0.451000,30.374000,-28.542000,-7.756000,30.080000
5.988,-0.038000,-0.854000,0.446000,30.214000,-37.786000,0.908000,29.990000
6.000,-0.032000,-0.860000,0.445000,31.214000,-45.779000,9.092000,30.040000
6.006,0.021000,-0.830000,0.474000,28.412000,-46.618000,7.328000,30.080000
6.018,0.069000,-0.810000,0.514000,25.511000,-42.756000,1.977000,29.990000
6.030,0.066000,-0.832000,0.503000,24.389000,-44.183000,1.466000,30.040000
6.038,0.094000,-0.827000,0.492000,22.137000,-45.405000,1.237000,29.940000
6.050,0.053000,-0.821000,0.499000,19.588000,-45.321000,1.626000,29.990000
6.057,0.020000,-0.809000,0.502000,19.397000,-42.282000,3.847000,29.990000
6.069,0.007000,-0.792000,0.507000,20.282000,-41.809000,5.649000,30.040000
6.080,-0.001000,-0.793000,0.524000,21.519000,-46.527000,4.573000,30.040000
6.089,0.039000,-0.797000,0.532000,23.756000,-47.565000,1.504000,30.080000
6.101,0.088000,-0.805000,0.556000,25.809000,-46.275000,-1.290000,29.990000
6.107,0.134000,-0.824000,0.570000,28.130000,-43.374000,-5.145000,30.080000
6.120,0.167000,-0.825000,0.593000,28.855000,-34.282000,-6.107000,30.040000
6.129,0.193000,-0.805000,0.605000,29.550000,-20.931000,-6.427000,29.990000
6.139,0.182000,-0.796000,0.603000,28.992000,-12.008000,-5.985000,30.080000
6.147,0.147000,-0.779000,0.627000,27.962000,-7.794000,-4.397000,30.040000
6.158,0.128000,-0.756000,0.608000,22.550000,-4.214000,-2.969000,30.040000
6.171,0.100000,-0.742000,0.610000,19.336000,-4.733000,-1.359000,29.990000
6.178,0.079000,-0.747000,0.606000,15.992000,-8.641000,0.954000,30.040000
6.190,0.097000,-0.748000,0.608000,13.389000,-12.366000,1.718000,30.040000
6.197,0.105000,-0.763000,0.608000,11.275000,-19.321000,3.550000,29.990000
6.209,0.114000,-0.762000,0.607000,8.313000,-21.397000,6.595000,29.990000
6.217,0.121000,-0.778000,0.600000,8.450000,-19.282000,8.855000,30.040000
6.230,0.136000,-0.763000,0.606000,7.611000,-16.908000,7.481000,30.040000
6.239,0.108000,-0.760000,0.619000,5.885000,-19.779000,5.221000,30.080000
6.249,0.052000,-0.749000,0.607000,2.061000,-26.473000,6.702000,29.990000
6.255,0.025000,-0.729000,0.609000,2.427000,-31.626000,8.473000,30.040000
6.268,0.041000,-0.725000,0.599000,1.878000,-37.137000,8.282000,30.040000
6.281,0.062000,-0.752000,0.608000,1.275000,-43.679000,7.336000,29.890000
6.289,0.083000,-0.778000,0.611000,1.786000,-48.107000,7.214000,30.080000
6.300,0.122000,-0.782000,0.600000,1.420000,-47.908000,8.313000,30.040000
6.307,0.169000,-0.793000,0.615000,2.672000,-44.084000,9.115000,29.990000
6.319,0.214000,-0.780000,0.621000,-0.634000,-29.771000,5.290000,29.990000
6.328,0.205000,-0.796000,0.617000,-4.099000,-16.053000,3.458000,30.040000
6.339,0.170000,-0.793000,0.603000,-5.237000,-9.206000,2.137000,29.940000
6.346,0.149000,-0.799000,0.595000,-4.893000,-4.145000,3.000000,30.080000
6.358,0.142000,-0.806000,0.585000,-3.939000,-0.519000,2.450000,29.990000
6.371,0.106000,-0.795000,0.574000,-4.588000,2.122000,1.664000,30.040000
6.380,0.088000,-0.796000,0.563000,-4.664000,1.397000,2.435000,29.940000
6.390,0.104000,-0.798000,0.550000,-4.031000,0.435000,2.328000,30.080000
6.398,0.129000,-0.802000,0.558000,-4.176000,-0.664000,1.115000,29.990000
6.410,0.111000,-0.804000,0.545000,-4.885000,0.863000,2.206000,29.940000
6.417,0.098000,-0.810000,0.537000,-3.679000,1.115000,4.015000,29.990000
6.430,0.100000,-0.799000,0.525000,-3.366000,1.237000,4.328000,29.990000
6.439,0.079000,-0.795000,0.523000,-3.794000,-0.969000,3.870000,30.040000
6.450,0.092000,-0.809000,0.530000,-1.511000,-5.328000,3.557000,30.040000
6.456,0.102000,-0.799000,0.521000,-1.580000,-6.649000,2.038000,30.080000
6.470,0.097000,-0.803000,0.511000,-0.069000,-8.649000,1.542000,30.080000
6.478,0.117000,-0.807000,0.517000,1.695000,-11.221000,2.137000,29.940000
6.489,0.146000,-0.819000,0.535000,2.695000,-10.603000,2.687000,30.040000
6.502,0.155000,-0.817000,0.550000,3.466000,-8.947000,3.771000,29.990000
6.508,0.164000,-0.808000,0.548000,2.260000,-4.855000,3.656000,30.040000
6.520,0.155000,-0.781000,0.568000,-2.779000,4.710000,0.550000,29.940000
6.529,0.117000,-0.799000,0.559000,-6.023000,6.534000,0.695000,29.990000
6.540,0.117000,-0.785000,0.559000,-8.489000,8.137000,0.313000,30.080000
6.547,0.116000,-0.801000,0.543000,-10.519000,9.389000,-0.191000,30.080000
6.559,0.106000,-0.807000,0.535000,-9.336000,5.153000,-1.855000,30.040000
6.566,0.101000,-0.813000,0.518000,-8.718000,1.817000,-1.336000,29.990000
6.580,0.098000,-0.811000,0.521000,-7.687000,0.710000,-0.901000,29.990000
6.586,0.086000,-0.815000,0.510000,-6.519000,-1.435000,-0.947000,29.940000
6.598,0.104000,-0.816000,0.513000,-6.550000,-0.718000,-2.351000,30.040000
6.611,0.110000,-0.825000,0.516000,-8.183000,-0.076000,-2.885000,29.990000
6.617,0.124000,-0.832000,0.510000,-6.939000,0.992000,-3.099000,29.990000
6.631,0.129000,-0.831000,0.504000,-6.076000,2.840000,-2.053000,30.040000
6.638,0.123000,-0.829000,0.492000,-5.687000,4.672000,-0.786000,30.040000
6.651,0.131000,-0.823000,0.482000,-5.298000,5.885000,-0.107000,29.990000
6.656,0.126000,-0.819000,0.482000,-6.260000,5.115000,1.008000,30.040000
6.669,0.114000,-0.831000,0.472000,-1.908000,3.695000,0.718000,30.040000
6.680,0.132000,-0.839000,0.478000,0.198000,1.756000,-0.183000,29.990000
6.689,0.120000,-0.829000,0.490000,0.733000,1.305000,0.511000,30.080000
6.697,0.121000,-0.823000,0.472000,1.901000,1.076000,1.069000,29.990000
6.709,0.109000,-0.835000,0.478000,2.443000,-0.519000,2.122000,30.130000
6.716,0.102000,-0.827000,0.489000,3.458000,-0.405000,0.466000,29.990000
6.729,0.105000,-0.818000,0.505000,3.160000,2.893000,-2.557000,30.080000
6.739,0.109000,-0.812000,0.522000,3.664000,2.496000,-3.244000,30.040000
6.748,0.110000,-0.814000,0.519000,1.573000,3.954000,-3.733000,30.040000
6.761,0.106000,-0.819000,0.532000,1.832000,4.313000,-1.924000,29.990000
6.768,0.088000,-0.820000,0.522000,1.779000,3.008000,-0.130000,30.080000
6.780,0.086000,-0.807000,0.530000,2.580000,0.305000,1.863000,30.040000
6.788,0.103000,-0.802000,0.533000,1.885000,-0.290000,1.321000,29.940000
6.800,0.094000,-0.801000,0.541000,0.802000,0.137000,-0.031000,29.990000
6.807,0.091000,-0.799000,0.518000,1.366000,0.954000,-1.275000,29.990000
6.820,0.090000,-0.807000,0.526000,1.267000,-0.237000,-1.672000,30.130000
6.830,0.083000,-0.808000,0.533000,1.450000,-4.962000,-1.405000,30.040000
6.839,0.093000,-0.819000,0.531000,3.298000,-7.626000,-1.221000,30.080000
6.848,0.098000,-0.808000,0.533000,4.878000,-8.931000,-1.679000,29.990000
6.858,0.109000,-0.798000,0.535000,5.588000,-13.191000,-0.977000,30.040000
6.864,0.123000,-0.794000,0.555000,5.061000,-13.435000,-0.023000,30.080000
6.880,0.134000,-0.801000,0.551000,5.023000,-11.382000,0.725000,29.990000
6.892,0.156000,-0.803000,0.555000,3.176000,-9.595000,2.588000,30.040000
6.898,0.174000,-0.808000,0.548000,1.695000,-3.847000,1.359000,30.040000
6.910,0.156000,-0.809000,0.542000,0.626000,0.565000,1.130000,29.990000
6.917,0.143000,-0.804000,0.537000,-0.702000,3.229000,-1.046000,30.080000
6.930,0.135000,-0.814000,0.538000,-0.527000,3.924000,-1.908000,30.040000
6.938,0.133000,-0.810000,0.530000,-1.397000,3.710000,-1.763000,30.130000
6.950,0.140000,-0.805000,0.529000,-1.405000,4.168000,-1.214000,30.080000
6.956,0.135000,-0.812000,0.527000,-1.466000,4.710000,0.137000,30.080000
6.969,0.135000,-0.815000,0.519000,-1.069000,3.443000,1.641000,30.040000
6.979,0.107000,-0.810000,0.515000,-1.168000,0.504000,3.389000,30.040000
6.989,0.106000,-0.810000,0.518000,-0.076000,-2.435000,3.863000,30.080000
6.994,0.106000,-0.805000,0.517000,-0.137000,-3.977000,3.649000,30.080000
7.008,0.098000,-0.812000,0.507000,-0.168000,-3.321000,3.099000,30.040000
7.020,0.097000,-0.819000,0.494000,0.969000,-2.702000,2.618000,30.040000
7.028,0.094000,-0.819000,0.509000,2.580000,-4.137000,1.183000,30.080000
7.040,0.098000,-0.806000,0.525000,3.809000,-4.473000,-0.229000,30.080000
7.048,0.100000,-0.800000,0.521000,3.290000,-4.321000,-1.504000,30.040000
7.059,0.106000,-0.798000,0.527000,2.817000,-4.748000,-2.550000,30.040000
7.067,0.100000,-0.800000,0.526000,1.931000,-5.290000,-2.153000,29.990000
7.080,0.111000,-0.802000,0.533000,1.908000,-6.099000,-1.336000,30.080000
7.089,0.118000,-0.790000,0.515000,1.947000,-8.115000,-1.244000,30.040000
7.099,0.145000,-0.822000,0.528000,2.527000,-7.412000,-2.046000,30.080000
7.105,0.127000,-0.809000,0.534000,2.992000,-5.107000,-2.305000,30.080000
7.123,0.115000,-0.802000,0.520000,2.489000,-4.069000,-2.893000,30.040000
