time_sec,ax,ay,az,gx,gy,gz,temp_c
0.007,-0.010000,-0.652000,0.500000,-72.519000,-8.924000,67.924000,30.790000
0.014,-0.007000,-0.674000,0.456000,-78.565000,-13.771000,68.771000,30.740000
0.026,-0.050000,-0.710000,0.411000,-77.420000,-22.824000,70.191000,30.880000
0.033,-0.009000,-0.808000,0.347000,-63.679000,-38.634000,68.939000,30.790000
0.045,0.018000,-0.787000,0.449000,-56.344000,-30.855000,66.130000,30.840000
0.057,-0.023000,-0.802000,0.453000,-48.145000,-28.687000,62.641000,30.840000
0.067,-0.043000,-0.798000,0.449000,-39.076000,-26.618000,58.206000,30.790000
0.076,-0.088000,-0.801000,0.454000,-32.771000,-23.435000,53.229000,30.790000
0.084,-0.100000,-0.806000,0.466000,-25.313000,-22.679000,46.908000,30.840000
0.096,-0.118000,-0.823000,0.457000,-18.130000,-27.695000,43.947000,30.740000
0.107,-0.132000,-0.837000,0.441000,-8.847000,-31.580000,41.420000,30.790000
0.114,-0.144000,-0.828000,0.443000,-1.137000,-30.366000,37.664000,30.740000
0.126,-0.143000,-0.811000,0.458000,5.405000,-26.603000,31.214000,30.740000
0.133,-0.132000,-0.781000,0.489000,6.756000,-13.893000,21.580000,30.880000
0.145,-0.116000,-0.776000,0.498000,6.008000,-3.252000,13.885000,30.740000
0.152,-0.142000,-0.750000,0.536000,2.725000,4.489000,9.221000,30.840000
0.165,-0.123000,-0.767000,0.553000,-0.947000,4.679000,9.733000,30.880000
0.177,-0.135000,-0.762000,0.564000,-5.702000,1.321000,13.206000,30.790000
0.185,-0.153000,-0.738000,0.589000,-12.290000,-0.634000,16.084000,30.740000
0.196,-0.150000,-0.753000,0.583000,-17.321000,-4.573000,18.557000,30.790000
0.203,-0.149000,-0.760000,0.562000,-22.420000,-5.969000,18.412000,30.790000
0.216,-0.150000,-0.787000,0.540000,-23.260000,-7.221000,17.321000,30.840000
0.228,-0.137000,-0.824000,0.527000,-22.244000,-7.870000,15.481000,30.840000
0.235,-0.141000,-0.828000,0.526000,-18.687000,-9.450000,13.374000,30.880000
0.246,-0.135000,-0.820000,0.540000,-14.931000,-9.198000,9.763000,30.880000
0.253,-0.120000,-0.825000,0.550000,-12.176000,-9.069000,7.023000,30.740000
0.266,-0.118000,-0.795000,0.569000,-10.427000,-9.580000,4.344000,30.790000
0.274,-0.088000,-0.809000,0.583000,-10.382000,-10.855000,1.023000,30.880000
0.285,-0.063000,-0.811000,0.570000,-11.947000,-13.695000,-1.321000,30.840000
0.297,-0.029000,-0.814000,0.572000,-13.298000,-5.275000,-1.290000,30.930000
0.304,-0.020000,-0.833000,0.578000,-14.893000,-0.145000,-1.939000,30.790000
0.316,-0.028000,-0.838000,0.552000,-14.435000,1.473000,-0.702000,30.840000
0.324,-0.017000,-0.864000,0.539000,-13.611000,-0.344000,2.450000,30.840000
0.335,-0.011000,-0.849000,0.530000,-13.908000,-2.687000,4.550000,30.790000
0.347,-0.017000,-0.854000,0.519000,-15.183000,-0.985000,4.565000,30.790000
0.354,-0.006000,-0.871000,0.511000,-14.695000,-0.137000,4.359000,30.930000
0.367,-0.025000,-0.895000,0.485000,-13.374000,1.740000,4.176000,30.840000
0.374,-0.021000,-0.915000,0.481000,-11.489000,2.359000,4.603000,30.790000
0.386,-0.032000,-0.905000,0.464000,-10.214000,0.687000,5.916000,30.740000
0.393,-0.034000,-0.905000,0.469000,-8.076000,-2.405000,9.084000,30.840000
0.405,-0.009000,-0.871000,0.467000,-8.626000,-1.031000,10.275000,30.790000
0.417,-0.025000,-0.851000,0.464000,-10.870000,7.221000,9.557000,30.740000
0.425,-0.055000,-0.849000,0.440000,-13.565000,8.244000,11.122000,30.840000
0.437,-0.102000,-0.854000,0.420000,-16.321000,6.908000,11.145000,30.790000
0.443,-0.117000,-0.863000,0.375000,-18.458000,3.985000,10.908000,30.790000
0.456,-0.126000,-0.869000,0.364000,-18.038000,1.626000,9.229000,30.740000
0.464,-0.138000,-0.854000,0.381000,-20.206000,-6.069000,11.084000,30.690000
0.475,-0.076000,-0.896000,0.314000,-14.252000,-3.282000,-1.061000,30.880000
0.487,-0.103000,-0.877000,0.359000,-8.305000,-5.931000,-1.420000,30.840000
0.494,-0.076000,-0.911000,0.376000,-2.962000,-8.809000,-4.359000,30.740000
0.506,-0.032000,-0.910000,0.399000,2.588000,-12.656000,-6.771000,30.880000
0.514,0.002000,-0.900000,0.438000,5.740000,-10.412000,-8.427000,30.930000
0.526,0.009000,-0.897000,0.442000,7.954000,-8.580000,-8.252000,30.740000
0.533,0.040000,-0.881000,0.452000,9.061000,-6.351000,-7.260000,30.790000
0.545,0.053000,-0.872000,0.471000,8.244000,-5.527000,-5.244000,30.790000
0.552,0.088000,-0.846000,0.491000,4.710000,0.618000,-5.359000,30.840000
0.565,0.061000,-0.854000,0.498000,1.008000,7.832000,-3.840000,30.790000
0.577,0.033000,-0.848000,0.504000,-0.947000,8.427000,-2.107000,30.880000
0.585,0.031000,-0.854000,0.518000,-2.061000,10.802000,0.359000,30.840000
0.597,-0.009000,-0.848000,0.511000,-2.611000,8.504000,1.634000,30.930000
0.604,-0.021000,-0.856000,0.517000,-2.557000,5.160000,3.275000,30.790000
0.617,-0.014000,-0.848000,0.519000,-2.534000,1.214000,5.290000,30.740000
0.624,-0.013000,-0.855000,0.519000,-2.771000,-0.168000,8.153000,30.840000
0.636,-0.010000,-0.843000,0.516000,-3.260000,0.458000,10.573000,30.740000
0.642,-0.032000,-0.839000,0.513000,-4.198000,2.557000,11.458000,30.790000
0.655,-0.042000,-0.822000,0.523000,-4.962000,3.519000,12.031000,30.840000
0.667,-0.066000,-0.808000,0.523000,-5.099000,1.061000,11.740000,30.840000
0.675,-0.053000,-0.782000,0.547000,-5.366000,1.550000,10.382000,30.790000
0.687,-0.053000,-0.774000,0.546000,-5.725000,1.626000,9.267000,30.840000
0.694,-0.044000,-0.762000,0.567000,-6.031000,4.588000,8.115000,30.840000
0.706,-0.045000,-0.748000,0.569000,-6.656000,7.298000,8.084000,30.790000
0.715,-0.058000,-0.745000,0.539000,-8.061000,8.901000,9.458000,30.790000
0.726,-0.073000,-0.772000,0.524000,-9.481000,9.969000,10.122000,30.740000
0.733,-0.074000,-0.793000,0.473000,-11.137000,7.969000,12.046000,30.880000
0.745,-0.075000,-0.814000,0.435000,-10.328000,6.618000,13.153000,30.790000
0.757,-0.074000,-0.849000,0.409000,-8.069000,5.725000,14.473000,30.840000
0.765,-0.077000,-0.854000,0.391000,-4.916000,4.496000,14.382000,30.840000
0.777,-0.079000,-0.870000,0.387000,-2.290000,5.649000,12.221000,30.790000
0.784,-0.093000,-0.896000,0.394000,0.481000,5.153000,8.733000,30.840000
0.796,-0.112000,-0.907000,0.406000,2.954000,4.893000,4.229000,30.930000
0.803,-0.100000,-0.913000,0.432000,7.099000,5.969000,-1.282000,30.790000
0.815,-0.069000,-0.919000,0.477000,12.000000,10.336000,-7.328000,30.790000
0.823,-0.040000,-0.915000,0.511000,14.191000,13.840000,-11.183000,30.840000
0.835,-0.057000,-0.891000,0.501000,12.130000,15.153000,-12.412000,30.840000
0.847,-0.089000,-0.879000,0.496000,7.534000,8.847000,-9.206000,30.790000
0.854,-0.086000,-0.887000,0.487000,4.351000,-6.076000,-2.038000,30.840000
0.866,-0.078000,-0.865000,0.496000,-0.153000,-22.198000,6.053000,30.740000
0.874,-0.038000,-0.872000,0.510000,-1.824000,-30.137000,10.313000,30.880000
0.885,0.035000,-0.879000,0.532000,-4.450000,-26.084000,10.000000,30.790000
0.897,0.061000,-0.879000,0.541000,-2.718000,-15.023000,8.710000,30.840000
0.905,0.066000,-0.891000,0.574000,4.534000,2.557000,3.405000,30.740000
0.918,0.039000,-0.890000,0.564000,16.382000,17.611000,-5.031000,30.790000
0.925,-0.022000,-0.858000,0.583000,23.618000,33.084000,-14.489000,30.840000
0.936,-0.138000,-0.822000,0.578000,23.847000,34.511000,-19.908000,30.840000
0.943,-0.259000,-0.784000,0.551000,14.305000,17.099000,-18.176000,30.790000
0.955,-0.340000,-0.786000,0.512000,0.313000,-13.832000,-8.863000,30.740000
0.967,-0.255000,-0.817000,0.483000,-13.534000,-47.763000,4.107000,30.740000
0.975,-0.117000,-0.869000,0.486000,-23.038000,-66.626000,13.878000,30.790000
0.986,0.028000,-0.915000,0.500000,-28.802000,-68.489000,20.565000,30.880000
0.993,0.097000,-0.981000,0.487000,-29.656000,-62.099000,25.115000,30.840000
1.005,0.133000,-1.030000,0.472000,-25.481000,-46.916000,26.046000,30.880000
1.018,0.115000,-1.018000,0.476000,-20.359000,-26.023000,22.092000,30.790000
1.025,0.035000,-0.979000,0.476000,-17.908000,-7.824000,17.008000,30.840000
1.037,-0.039000,-0.956000,0.458000,-17.580000,-2.099000,13.702000,30.740000
1.043,-0.087000,-0.932000,0.457000,-19.084000,-1.595000,10.626000,30.790000
1.056,-0.103000,-0.922000,0.448000,-21.450000,-5.733000,8.901000,30.740000
1.064,-0.094000,-0.942000,0.450000,-21.618000,-12.450000,9.565000,30.840000
1.074,-0.080000,-0.958000,0.457000,-20.565000,-18.282000,10.908000,30.790000
1.087,-0.062000,-0.979000,0.467000,-16.046000,-25.748000,14.603000,30.880000
1.093,-0.054000,-0.944000,0.482000,-14.015000,-35.527000,18.344000,30.740000
1.105,-0.012000,-0.908000,0.506000,-17.321000,-24.802000,16.115000,30.790000
1.117,-0.013000,-0.900000,0.518000,-25.977000,-18.985000,12.863000,30.790000
1.125,0.001000,-0.943000,0.461000,-30.061000,-14.779000,12.237000,30.840000
1.136,0.019000,-0.978000,0.437000,-33.473000,-12.405000,12.977000,30.740000
1.143,-0.002000,-1.005000,0.371000,-36.504000,-8.206000,14.489000,30.790000
1.155,-0.043000,-1.011000,0.332000,-29.901000,-8.344000,15.145000,30.840000
1.163,-0.093000,-1.014000,0.335000,-18.626000,-7.489000,12.580000,30.740000
1.175,-0.099000,-0.991000,0.349000,-7.847000,-12.153000,8.107000,30.930000
1.187,-0.106000,-0.972000,0.384000,0.153000,-13.015000,-0.504000,30.790000
1.194,-0.096000,-0.939000,0.436000,7.435000,-9.122000,-10.282000,30.840000
1.206,-0.049000,-0.937000,0.457000,11.313000,0.992000,-17.557000,30.840000
1.215,-0.033000,-0.935000,0.463000,11.344000,14.305000,-23.832000,30.880000
1.225,-0.078000,-0.894000,0.462000,10.397000,17.031000,-22.252000,30.650000
1.237,-0.130000,-0.847000,0.476000,8.053000,9.214000,-16.427000,30.740000
1.244,-0.179000,-0.789000,0.510000,2.672000,1.290000,-11.107000,30.790000
1.256,-0.195000,-0.775000,0.553000,-3.351000,-10.137000,-8.092000,30.790000
1.265,-0.186000,-0.761000,0.553000,-10.893000,-22.099000,-5.962000,30.840000
1.276,-0.169000,-0.762000,0.559000,-19.015000,-27.168000,-7.718000,30.790000
1.288,-0.094000,-0.802000,0.535000,-24.053000,-25.168000,-10.122000,30.790000
1.294,-0.012000,-0.836000,0.533000,-29.107000,-13.672000,-15.137000,30.840000
1.306,0.017000,-0.895000,0.475000,-30.580000,-0.420000,-18.183000,30.740000
1.314,0.039000,-0.930000,0.428000,-29.435000,10.580000,-18.771000,30.740000
1.325,0.002000,-0.917000,0.374000,-26.557000,16.519000,-16.389000,30.790000
1.337,-0.054000,-0.924000,0.344000,-26.000000,13.954000,-13.595000,30.840000
1.344,-0.097000,-0.897000,0.352000,-24.779000,5.641000,-12.511000,30.880000
1.356,-0.103000,-0.919000,0.353000,-25.656000,-2.275000,-12.313000,30.790000
1.366,-0.087000,-0.922000,0.371000,-27.053000,-9.870000,-12.855000,30.840000
1.375,-0.043000,-0.928000,0.382000,-26.466000,-11.221000,-11.794000,30.840000
1.387,-0.002000,-0.936000,0.374000,-30.885000,-13.878000,-9.939000,30.880000
1.394,0.022000,-0.952000,0.371000,-30.221000,-13.580000,-8.763000,30.740000
1.406,0.051000,-0.971000,0.366000,-31.458000,-8.550000,-7.718000,30.740000
1.414,0.053000,-0.964000,0.362000,-30.198000,-6.748000,-6.206000,30.790000
1.426,0.024000,-0.954000,0.363000,-31.145000,-6.168000,-4.206000,30.880000
1.437,0.030000,-0.950000,0.346000,-32.038000,-8.420000,-3.076000,30.930000
1.444,0.029000,-0.967000,0.340000,-32.321000,-10.046000,-1.794000,30.840000
1.457,0.038000,-0.966000,0.345000,-32.344000,-14.817000,1.076000,30.790000
1.465,0.049000,-0.973000,0.333000,-32.832000,-13.794000,2.412000,30.740000
1.476,0.056000,-0.990000,0.317000,-32.275000,-10.634000,3.664000,30.840000
1.484,0.050000,-0.985000,0.304000,-30.145000,-6.489000,3.290000,30.690000
1.495,0.033000,-0.965000,0.288000,-29.328000,-2.008000,2.321000,30.840000
1.507,0.023000,-0.970000,0.289000,-28.534000,1.931000,-0.183000,30.840000
1.515,0.024000,-0.973000,0.273000,-26.244000,-1.168000,0.008000,30.880000
1.528,0.033000,-0.963000,0.266000,-24.427000,-4.038000,0.588000,30.790000
1.534,0.029000,-0.955000,0.281000,-21.763000,-7.473000,1.969000,30.840000
1.546,0.027000,-0.922000,0.288000,-21.061000,-11.076000,3.908000,30.840000
1.553,0.005000,-0.901000,0.302000,-26.282000,-16.214000,7.611000,30.880000
1.565,0.011000,-0.903000,0.284000,-25.588000,-17.550000,9.053000,30.840000
1.578,0.023000,-0.935000,0.252000,-30.603000,-25.321000,12.954000,30.840000
1.585,0.050000,-0.926000,0.276000,-29.786000,-25.191000,14.229000,30.840000
1.596,0.057000,-0.939000,0.283000,-29.656000,-23.481000,15.580000,30.790000
1.603,0.069000,-0.932000,0.276000,-25.298000,-20.298000,13.359000,30.740000
1.616,0.071000,-0.928000,0.297000,-21.962000,-11.626000,9.275000,30.790000
1.624,0.067000,-0.923000,0.287000,-19.427000,-5.893000,5.756000,30.790000
1.635,0.041000,-0.923000,0.279000,-16.718000,-1.267000,3.305000,30.840000
1.647,0.026000,-0.934000,0.249000,-14.687000,2.237000,3.359000,30.840000
1.654,-0.022000,-0.941000,0.230000,-14.000000,-0.336000,3.389000,30.790000
1.667,-0.058000,-0.948000,0.209000,-15.130000,-4.267000,4.069000,30.840000
1.674,-0.079000,-0.965000,0.200000,-16.397000,-11.901000,5.053000,30.840000
1.685,-0.064000,-0.956000,0.217000,-15.405000,-17.664000,4.427000,30.790000
1.697,-0.033000,-0.915000,0.242000,-13.748000,-17.366000,2.588000,30.790000
1.704,0.007000,-0.924000,0.266000,-11.794000,-12.382000,0.015000,30.840000
1.717,0.021000,-0.922000,0.266000,-8.763000,-8.962000,-2.076000,30.740000
1.725,0.006000,-0.951000,0.281000,-6.962000,-1.786000,-3.412000,30.790000
1.736,-0.009000,-0.959000,0.270000,-5.183000,-2.252000,-5.458000,30.740000
1.743,-0.017000,-0.959000,0.254000,-7.031000,1.443000,-6.389000,30.740000
1.755,-0.025000,-0.976000,0.244000,-8.954000,-5.412000,-6.779000,30.880000
1.768,0.000000,-0.966000,0.240000,-11.397000,-6.183000,-5.664000,30.880000
1.775,0.006000,-0.982000,0.215000,-12.817000,-13.084000,-1.595000,30.740000
1.787,0.023000,-0.995000,0.191000,-15.374000,-18.679000,2.901000,30.790000
1.793,0.012000,-0.998000,0.191000,-18.053000,-24.198000,7.122000,30.790000
1.806,0.006000,-1.008000,0.180000,-18.573000,-26.260000,9.687000,30.740000
1.814,-0.007000,-1.027000,0.171000,-20.260000,-32.664000,11.450000,30.840000
1.825,0.007000,-1.022000,0.188000,-17.939000,-38.809000,12.313000,30.880000
1.837,0.006000,-0.992000,0.194000,-18.992000,-39.504000,12.214000,30.790000
1.844,-0.006000,-0.981000,0.176000,-20.359000,-46.458000,14.160000,30.930000
1.856,-0.003000,-0.967000,0.156000,-21.145000,-53.267000,17.198000,30.740000
1.864,0.001000,-0.976000,0.182000,-21.527000,-58.878000,21.137000,30.690000
1.875,0.002000,-0.968000,0.170000,-22.198000,-64.740000,24.718000,30.740000
1.887,0.013000,-0.952000,0.179000,-24.351000,-67.160000,26.290000,30.740000
1.894,0.022000,-0.979000,0.169000,-25.046000,-67.718000,26.168000,30.790000
1.906,0.062000,-0.991000,0.176000,-21.527000,-63.153000,23.206000,30.840000
1.913,0.118000,-0.990000,0.182000,-16.336000,-54.420000,18.748000,30.930000
1.925,0.137000,-0.985000,0.206000,-10.740000,-43.076000,14.092000,30.880000
1.937,0.125000,-0.984000,0.202000,-4.977000,-29.672000,11.198000,30.790000
1.944,0.106000,-0.987000,0.218000,0.145000,-19.382000,8.084000,30.840000
1.957,0.056000,-0.981000,0.219000,2.450000,-12.832000,5.618000,30.790000
1.965,0.023000,-0.967000,0.207000,1.870000,-11.267000,3.061000,30.790000
1.976,0.009000,-0.965000,0.208000,0.443000,-15.313000,3.000000,30.840000
1.984,0.055000,-0.984000,0.187000,0.397000,-17.595000,3.084000,30.840000
1.996,0.125000,-1.013000,0.183000,1.275000,-17.015000,5.260000,30.740000
2.003,0.144000,-1.044000,0.167000,1.908000,-16.702000,8.458000,30.880000
2.016,0.125000,-1.051000,0.167000,2.893000,-16.000000,11.412000,30.840000
2.027,0.091000,-1.060000,0.158000,2.962000,-15.695000,13.389000,30.880000
2.035,0.047000,-1.058000,0.174000,3.496000,-16.985000,14.015000,30.790000
2.047,0.021000,-1.053000,0.153000,3.695000,-21.527000,14.046000,30.840000
2.054,0.016000,-1.057000,0.146000,4.382000,-22.893000,13.443000,30.740000
2.066,0.003000,-1.059000,0.130000,6.282000,-24.832000,12.870000,30.790000
2.074,0.019000,-1.050000,0.113000,9.336000,-29.130000,12.649000,30.790000
2.085,0.037000,-1.044000,0.125000,11.924000,-31.237000,13.084000,30.840000
2.097,0.043000,-1.023000,0.135000,14.687000,-34.206000,14.145000,30.790000
2.104,0.047000,-0.995000,0.157000,17.076000,-32.863000,12.916000,30.790000
2.118,0.061000,-0.987000,0.178000,19.832000,-28.237000,12.221000,30.930000
2.125,0.036000,-0.967000,0.178000,21.542000,-24.885000,10.786000,30.840000
2.136,0.009000,-0.944000,0.169000,23.198000,-24.153000,8.580000,30.880000
2.143,0.033000,-0.937000,0.180000,25.237000,-26.779000,7.901000,30.790000
2.155,0.053000,-0.914000,0.201000,25.641000,-27.389000,7.824000,30.840000
2.161,0.048000,-0.915000,0.229000,24.916000,-28.221000,9.824000,30.880000
2.175,0.007000,-0.901000,0.253000,22.664000,-30.427000,11.573000,30.790000
2.187,-0.004000,-0.881000,0.276000,18.870000,-28.229000,10.916000,30.740000
2.194,0.003000,-0.885000,0.273000,16.405000,-26.206000,9.542000,30.740000
2.206,0.012000,-0.881000,0.271000,15.870000,-22.351000,6.901000,30.880000
2.215,0.033000,-0.895000,0.276000,16.977000,-20.817000,5.260000,30.790000
2.227,0.012000,-0.890000,0.294000,18.908000,-18.656000,4.504000,30.740000
2.232,-0.049000,-0.830000,0.276000,14.458000,-14.687000,3.748000,30.790000
2.245,0.025000,-0.880000,0.295000,17.695000,-11.305000,2.649000,30.790000
2.257,0.017000,-0.878000,0.290000,18.916000,-11.763000,4.824000,30.840000
2.265,0.027000,-0.869000,0.292000,18.710000,-13.000000,7.939000,30.740000
2.276,0.014000,-0.883000,0.286000,18.763000,-12.298000,9.489000,30.840000
2.284,0.017000,-0.884000,0.266000,18.802000,-10.878000,11.733000,30.790000
2.295,0.001000,-0.898000,0.301000,16.580000,-5.389000,10.618000,30.840000
2.302,-0.052000,-0.901000,0.298000,14.427000,-5.634000,11.344000,30.840000
2.315,-0.074000,-0.908000,0.285000,12.099000,-9.000000,12.275000,30.880000
2.327,-0.061000,-0.892000,0.272000,8.366000,-10.084000,10.863000,30.840000
2.335,-0.044000,-0.904000,0.270000,6.695000,-12.542000,9.504000,30.840000
2.347,0.010000,-0.926000,0.263000,7.969000,-12.092000,9.550000,30.790000
2.353,0.031000,-0.949000,0.261000,8.450000,-10.061000,10.832000,30.790000
2.366,-0.010000,-0.975000,0.243000,9.069000,-15.420000,14.221000,30.840000
2.373,-0.028000,-0.977000,0.247000,7.527000,-14.794000,14.664000,30.930000
2.385,-0.043000,-0.984000,0.226000,4.878000,-11.847000,12.275000,30.790000
2.397,-0.056000,-0.981000,0.201000,3.420000,-12.008000,8.885000,30.840000
2.404,-0.036000,-0.964000,0.213000,7.710000,-15.107000,5.237000,30.840000
2.417,-0.009000,-0.966000,0.215000,5.382000,-17.359000,4.443000,30.840000
2.424,-0.007000,-0.937000,0.250000,9.435000,-16.557000,-0.718000,30.790000
2.436,0.013000,-0.930000,0.291000,12.214000,-9.702000,-7.069000,30.840000
2.443,0.007000,-0.985000,0.259000,14.290000,-2.229000,-11.847000,30.840000
2.455,0.035000,-0.962000,0.247000,19.870000,10.947000,-18.908000,30.790000
2.468,0.015000,-0.970000,0.240000,25.382000,15.443000,-19.756000,30.740000
2.474,-0.034000,-0.950000,0.242000,28.863000,9.794000,-15.878000,30.740000
2.486,-0.068000,-0.906000,0.266000,28.855000,-2.069000,-11.962000,30.790000
2.493,-0.102000,-0.864000,0.287000,23.321000,-18.069000,-8.221000,30.790000
2.505,-0.098000,-0.838000,0.305000,13.573000,-34.969000,-5.252000,30.840000
2.517,-0.066000,-0.843000,0.318000,5.756000,-48.351000,-4.649000,30.740000
2.525,-0.035000,-0.859000,0.341000,0.206000,-59.679000,-1.824000,30.790000
2.537,-0.026000,-0.853000,0.361000,-6.580000,-66.168000,0.466000,30.840000
2.543,-0.002000,-0.819000,0.361000,-8.198000,-66.321000,1.237000,30.840000
2.556,0.007000,-0.818000,0.379000,-14.053000,-63.588000,-0.122000,30.740000
2.563,0.068000,-0.867000,0.368000,-12.794000,-62.092000,-0.305000,30.880000
2.575,0.174000,-0.915000,0.353000,-8.122000,-48.382000,-3.420000,30.840000
2.587,0.178000,-0.958000,0.331000,-2.023000,-33.710000,-4.702000,30.790000
2.594,0.148000,-0.934000,0.329000,3.947000,-25.107000,-1.511000,30.790000
2.606,0.094000,-0.893000,0.317000,6.237000,-17.679000,-0.351000,30.740000
2.614,0.020000,-0.827000,0.313000,5.725000,-15.092000,-0.458000,30.840000
2.627,-0.006000,-0.817000,0.321000,5.481000,-19.405000,-4.023000,30.790000
2.634,0.040000,-0.825000,0.336000,5.084000,-19.313000,-9.099000,30.840000
2.645,0.055000,-0.835000,0.399000,9.282000,-17.634000,-11.328000,30.840000
2.657,0.050000,-0.834000,0.397000,7.084000,-26.573000,-8.565000,30.690000
2.665,0.078000,-0.840000,0.380000,7.931000,-22.756000,-9.305000,30.880000
2.676,0.112000,-0.877000,0.362000,6.160000,-21.137000,-9.763000,30.840000
2.684,0.096000,-0.888000,0.307000,2.748000,-14.992000,-8.107000,30.740000
2.696,0.105000,-0.949000,0.252000,1.504000,-11.679000,-7.076000,30.790000
2.703,0.086000,-0.971000,0.230000,2.885000,-8.702000,-5.863000,30.840000
2.716,0.083000,-0.971000,0.226000,4.809000,-8.107000,-3.931000,30.840000
2.725,0.056000,-0.943000,0.225000,6.733000,-9.443000,-1.817000,30.790000
2.735,0.040000,-0.926000,0.226000,7.573000,-10.275000,-1.351000,30.790000
2.747,0.042000,-0.922000,0.231000,7.595000,-15.053000,-1.687000,30.840000
2.754,0.056000,-0.922000,0.244000,9.656000,-12.130000,-4.947000,30.690000
2.767,0.065000,-0.950000,0.240000,13.298000,-5.565000,-4.855000,30.790000
2.774,0.072000,-0.944000,0.257000,17.084000,-13.000000,-5.038000,30.840000
2.786,0.067000,-0.933000,0.274000,18.634000,-14.427000,-3.725000,30.740000
2.792,0.069000,-0.919000,0.265000,17.328000,-15.275000,-2.618000,30.790000
2.805,0.079000,-0.919000,0.275000,15.214000,-14.771000,-5.481000,30.740000
2.817,0.104000,-0.936000,0.273000,15.565000,-15.595000,-6.832000,30.840000
2.824,0.135000,-0.944000,0.279000,16.992000,-14.603000,-6.931000,30.840000
2.836,0.135000,-0.951000,0.284000,17.298000,-14.397000,-5.305000,30.790000
2.843,0.137000,-0.943000,0.295000,18.740000,-19.198000,0.656000,30.740000
2.855,0.139000,-0.902000,0.308000,19.229000,-22.672000,2.198000,30.790000
2.865,0.152000,-0.877000,0.328000,17.305000,-27.473000,2.382000,30.690000
2.876,0.223000,-0.880000,0.349000,14.466000,-31.443000,1.427000,30.740000
2.887,0.275000,-0.897000,0.358000,13.328000,-34.267000,2.336000,30.840000
2.894,0.293000,-0.910000,0.384000,8.870000,-37.099000,6.031000,30.790000
2.907,0.314000,-0.938000,0.364000,5.634000,-31.214000,8.336000,30.840000
2.915,0.296000,-0.978000,0.356000,2.282000,-17.580000,11.672000,30.840000
2.927,0.188000,-0.923000,0.312000,0.122000,-12.168000,18.336000,30.790000
2.934,0.108000,-0.891000,0.306000,-1.130000,-10.618000,21.115000,30.880000
2.945,0.067000,-0.913000,0.264000,-2.664000,-12.947000,20.695000,30.740000
2.957,0.055000,-0.920000,0.239000,-3.725000,-16.344000,17.580000,30.840000
2.965,0.039000,-0.929000,0.225000,-0.847000,-19.702000,14.504000,30.790000
2.977,0.047000,-0.912000,0.233000,4.313000,-21.229000,12.550000,30.840000
2.985,0.080000,-0.886000,0.221000,10.214000,-21.672000,11.519000,30.740000
2.996,0.075000,-0.923000,0.262000,10.336000,-10.718000,6.817000,30.880000
3.003,0.057000,-0.934000,0.244000,15.977000,-13.748000,8.191000,30.790000
3.016,0.056000,-0.926000,0.278000,20.733000,-21.061000,9.153000,30.740000
3.027,0.051000,-0.936000,0.284000,23.634000,-31.649000,12.366000,30.790000
3.035,0.059000,-0.909000,0.308000,23.275000,-36.702000,15.641000,30.790000
3.047,0.033000,-0.842000,0.333000,20.511000,-40.229000,16.023000,30.840000
3.054,0.051000,-0.817000,0.357000,18.534000,-45.985000,13.603000,30.740000
3.066,0.116000,-0.812000,0.379000,17.817000,-48.427000,8.244000,30.790000
3.074,0.204000,-0.843000,0.420000,22.069000,-46.015000,4.000000,30.790000
3.085,0.282000,-0.924000,0.454000,27.588000,-38.053000,3.855000,30.740000
3.091,0.323000,-0.976000,0.416000,32.695000,-25.023000,5.252000,30.740000
3.104,0.302000,-0.986000,0.404000,36.626000,-10.458000,10.313000,30.880000
3.118,0.214000,-0.949000,0.394000,37.328000,0.298000,19.313000,30.740000
3.125,0.095000,-0.829000,0.368000,31.305000,1.977000,24.084000,30.840000
3.136,0.030000,-0.783000,0.371000,23.809000,-4.656000,22.626000,30.790000
3.143,0.020000,-0.808000,0.396000,19.618000,-21.397000,22.771000,30.790000
3.155,0.073000,-0.820000,0.397000,17.588000,-33.145000,21.527000,30.740000
3.163,0.107000,-0.841000,0.427000,17.664000,-43.160000,23.244000,30.790000
3.176,0.134000,-0.864000,0.442000,19.061000,-50.130000,26.618000,30.790000
3.187,0.150000,-0.867000,0.419000,24.618000,-46.664000,27.061000,30.840000
3.194,0.083000,-0.782000,0.474000,18.023000,-42.061000,32.771000,30.740000
3.206,0.065000,-0.780000,0.454000,13.366000,-36.947000,33.229000,30.790000
3.215,0.033000,-0.796000,0.427000,7.916000,-36.176000,25.351000,30.880000
3.226,0.086000,-0.836000,0.398000,4.038000,-39.160000,19.405000,30.840000
3.234,0.156000,-0.852000,0.377000,2.511000,-30.397000,8.702000,30.840000
3.245,0.173000,-0.916000,0.381000,10.672000,-27.511000,3.504000,30.880000
3.257,0.251000,-0.928000,0.392000,15.084000,-18.321000,3.489000,30.840000
3.266,0.238000,-0.936000,0.425000,18.771000,-5.198000,6.206000,30.740000
3.277,0.199000,-0.897000,0.434000,23.718000,-0.344000,13.130000,30.790000
3.284,0.140000,-0.819000,0.450000,19.450000,6.244000,15.573000,30.790000
3.296,0.065000,-0.786000,0.455000,12.603000,6.588000,15.466000,30.740000
3.303,-0.014000,-0.744000,0.455000,7.649000,-1.420000,10.626000,30.880000
3.316,-0.049000,-0.752000,0.469000,5.534000,-16.122000,6.137000,30.880000
3.324,-0.008000,-0.770000,0.481000,-2.504000,-40.496000,11.115000,30.840000
3.335,0.048000,-0.807000,0.459000,-3.832000,-54.695000,16.664000,30.840000
3.347,0.065000,-0.818000,0.475000,-10.542000,-63.878000,23.863000,30.690000
3.353,0.126000,-0.860000,0.456000,-14.321000,-68.664000,31.664000,30.790000
3.366,0.176000,-0.847000,0.441000,-16.931000,-61.893000,31.710000,30.930000
3.374,0.225000,-0.886000,0.435000,-14.885000,-46.344000,26.679000,30.840000
3.385,0.267000,-0.931000,0.442000,-10.542000,-25.656000,20.924000,30.880000
3.397,0.240000,-0.923000,0.427000,-2.038000,-4.092000,13.542000,30.840000
3.404,0.192000,-0.901000,0.424000,3.282000,8.550000,9.611000,30.840000
3.418,0.120000,-0.869000,0.392000,5.962000,17.092000,5.687000,30.790000
3.424,0.093000,-0.853000,0.388000,7.710000,23.511000,0.748000,30.790000
3.436,0.072000,-0.853000,0.377000,10.183000,23.695000,-3.168000,30.840000
3.443,0.032000,-0.822000,0.382000,10.595000,21.244000,-4.908000,30.690000
3.456,-0.010000,-0.824000,0.354000,8.580000,8.756000,-3.756000,30.880000
3.465,-0.029000,-0.832000,0.358000,6.626000,-8.939000,-0.687000,30.840000
3.476,0.006000,-0.848000,0.339000,2.656000,-22.275000,1.176000,30.840000
3.487,0.120000,-0.847000,0.349000,-5.420000,-18.695000,-1.496000,30.790000
3.494,0.162000,-0.886000,0.362000,-5.908000,-17.344000,-1.252000,30.790000
3.507,0.225000,-0.925000,0.356000,-4.832000,-13.244000,0.420000,30.740000
3.515,0.235000,-0.933000,0.347000,-0.649000,-3.282000,2.237000,30.840000
3.527,0.188000,-0.926000,0.348000,3.618000,3.924000,3.405000,30.690000
3.535,0.109000,-0.891000,0.369000,6.244000,4.779000,3.863000,30.840000
3.546,0.066000,-0.867000,0.382000,8.053000,1.748000,2.466000,30.740000
3.553,0.054000,-0.851000,0.407000,10.305000,-2.817000,0.481000,30.790000
3.565,0.089000,-0.854000,0.412000,12.511000,-2.618000,-2.496000,30.740000
3.574,0.101000,-0.857000,0.437000,17.229000,-3.969000,-4.481000,30.840000
3.585,0.102000,-0.843000,0.438000,18.863000,-3.489000,-5.916000,30.790000
3.597,0.126000,-0.844000,0.457000,21.176000,7.275000,-11.534000,30.790000
3.604,0.101000,-0.808000,0.477000,21.191000,13.099000,-14.702000,30.840000
3.616,0.086000,-0.792000,0.482000,19.779000,17.305000,-18.229000,30.840000
3.624,0.100000,-0.796000,0.502000,16.443000,19.137000,-21.366000,30.880000
3.635,0.125000,-0.819000,0.493000,15.557000,19.809000,-23.740000,30.840000
3.642,0.129000,-0.803000,0.496000,13.397000,19.168000,-21.939000,30.840000
3.655,0.129000,-0.820000,0.490000,12.260000,14.122000,-18.038000,30.840000
3.667,0.101000,-0.812000,0.462000,10.061000,5.351000,-11.275000,30.790000
3.675,0.096000,-0.800000,0.480000,5.527000,-1.290000,-7.198000,30.840000
3.686,0.107000,-0.809000,0.496000,2.779000,-8.115000,-4.298000,30.790000
3.693,0.106000,-0.812000,0.494000,3.580000,-19.687000,-2.191000,30.880000
3.706,0.097000,-0.804000,0.486000,3.015000,-31.649000,-1.107000,30.930000
3.715,0.172000,-0.727000,0.540000,-6.756000,-14.397000,-12.641000,30.840000
3.725,0.100000,-0.813000,0.518000,-4.748000,-17.305000,-14.191000,30.790000
3.737,0.196000,-0.759000,0.514000,-11.901000,-6.198000,-14.328000,30.740000
3.744,0.166000,-0.800000,0.458000,-16.069000,1.168000,-17.008000,30.840000
3.756,0.172000,-0.788000,0.460000,-18.565000,7.267000,-19.099000,30.790000
3.763,0.224000,-0.788000,0.446000,-19.481000,14.817000,-21.336000,30.790000
3.777,0.256000,-0.816000,0.446000,-17.863000,22.603000,-23.168000,30.930000
3.787,0.263000,-0.803000,0.453000,-18.344000,32.565000,-24.916000,30.740000
3.794,0.247000,-0.833000,0.442000,-16.893000,38.229000,-22.740000,30.790000
3.807,0.243000,-0.825000,0.415000,-17.641000,41.076000,-19.389000,30.740000
3.815,0.211000,-0.821000,0.417000,-18.779000,47.389000,-17.802000,30.740000
3.827,0.183000,-0.832000,0.410000,-20.153000,48.985000,-16.130000,30.790000
3.837,0.199000,-0.852000,0.395000,-20.397000,49.450000,-16.725000,30.790000
3.844,0.230000,-0.885000,0.400000,-18.389000,51.664000,-18.565000,30.930000
3.856,0.263000,-0.891000,0.384000,-16.519000,55.641000,-18.420000,30.840000
3.865,0.287000,-0.883000,0.416000,-12.931000,59.832000,-16.954000,30.790000
3.877,0.306000,-0.878000,0.425000,-6.206000,70.122000,-16.130000,30.740000
3.883,0.319000,-0.885000,0.451000,0.061000,86.191000,-14.992000,30.840000
3.895,0.321000,-0.850000,0.473000,3.458000,104.626000,-14.977000,30.880000
3.907,0.217000,-0.890000,0.469000,2.290000,120.214000,-14.664000,30.880000
3.916,0.131000,-0.778000,0.425000,-2.985000,113.611000,-7.412000,30.840000
3.927,0.018000,-0.729000,0.411000,-14.466000,95.466000,-0.679000,30.840000
3.933,0.024000,-0.739000,0.372000,-24.298000,78.832000,0.595000,30.790000
3.945,0.098000,-0.739000,0.384000,-27.229000,73.916000,-1.626000,30.740000
3.952,0.128000,-0.740000,0.399000,-26.847000,79.191000,-4.863000,30.740000
3.965,0.125000,-0.756000,0.377000,-23.588000,76.740000,-2.481000,30.790000
3.977,0.130000,-0.781000,0.377000,-20.740000,79.229000,-5.244000,30.740000
3.986,0.105000,-0.813000,0.349000,-16.672000,75.542000,-5.122000,30.840000
3.996,0.056000,-0.812000,0.356000,-13.618000,85.634000,-15.481000,30.790000
4.003,0.082000,-0.857000,0.347000,-8.603000,89.664000,-23.198000,30.790000
4.015,0.084000,-0.880000,0.320000,-5.206000,96.588000,-32.366000,30.840000
4.030,0.096000,-0.907000,0.321000,-2.992000,101.504000,-38.008000,30.790000
4.036,0.166000,-0.889000,0.307000,2.687000,102.344000,-39.069000,30.790000
4.047,0.200000,-0.901000,0.332000,8.359000,102.664000,-34.351000,30.840000
4.053,0.168000,-0.924000,0.352000,10.061000,104.435000,-29.107000,30.840000
4.066,0.102000,-0.869000,0.338000,8.809000,92.664000,-19.794000,30.880000
4.073,0.007000,-0.872000,0.350000,3.985000,84.160000,-16.023000,30.840000
4.086,-0.043000,-0.905000,0.329000,-1.489000,74.466000,-15.771000,30.740000
4.097,-0.063000,-0.904000,0.312000,-5.420000,58.328000,-15.260000,30.790000
4.104,0.036000,-0.892000,0.327000,-0.397000,53.122000,-16.725000,30.790000
4.116,0.168000,-0.865000,0.359000,3.313000,58.656000,-20.183000,30.740000
4.124,0.198000,-0.878000,0.408000,6.130000,64.672000,-17.763000,30.840000
4.136,0.171000,-0.921000,0.378000,6.679000,72.244000,-11.649000,30.790000
4.143,0.065000,-0.959000,0.322000,9.863000,67.473000,0.153000,30.840000
4.155,-0.031000,-0.953000,0.271000,12.580000,51.878000,12.786000,30.840000
4.168,-0.096000,-0.909000,0.263000,12.183000,43.038000,18.061000,30.880000
4.175,-0.112000,-0.837000,0.267000,12.153000,38.794000,19.298000,30.790000
4.186,-0.103000,-0.755000,0.285000,16.061000,34.282000,19.191000,30.840000
4.193,-0.096000,-0.691000,0.295000,17.832000,24.344000,20.496000,30.840000
4.206,-0.105000,-0.686000,0.368000,18.817000,15.122000,21.000000,30.790000
4.214,-0.082000,-0.783000,0.419000,19.611000,15.847000,17.824000,30.930000
4.225,-0.111000,-0.842000,0.399000,19.450000,23.664000,10.534000,30.930000
4.237,-0.119000,-0.854000,0.387000,21.534000,38.595000,0.412000,30.880000
4.244,-0.080000,-0.871000,0.385000,18.198000,56.450000,-7.969000,30.880000
4.256,-0.143000,-0.840000,0.348000,17.679000,56.015000,-10.382000,30.840000
4.265,-0.134000,-0.829000,0.364000,22.565000,50.924000,-9.344000,30.790000
4.275,-0.156000,-0.805000,0.385000,19.687000,47.809000,-12.504000,30.790000
4.287,-0.238000,-0.826000,0.390000,15.405000,37.656000,-15.450000,30.930000
4.294,-0.226000,-0.835000,0.416000,14.084000,33.122000,-22.824000,30.840000
4.306,-0.159000,-0.885000,0.420000,13.298000,24.145000,-25.382000,30.790000
4.314,-0.072000,-0.881000,0.468000,11.473000,29.031000,-29.489000,30.840000
4.326,-0.030000,-0.828000,0.477000,19.473000,28.076000,-28.664000,30.840000
4.333,-0.051000,-0.777000,0.503000,15.947000,31.580000,-26.061000,30.840000
4.344,-0.158000,-0.729000,0.500000,11.954000,27.672000,-26.649000,30.880000
4.357,-0.116000,-0.769000,0.525000,9.733000,24.649000,-27.557000,30.840000
4.365,-0.144000,-0.767000,0.544000,2.786000,20.191000,-28.084000,30.790000
4.376,-0.128000,-0.803000,0.539000,-4.160000,20.015000,-31.588000,30.880000
4.383,-0.033000,-0.812000,0.544000,-8.840000,19.382000,-34.168000,30.840000
4.395,0.091000,-0.807000,0.540000,-8.794000,28.405000,-39.550000,30.840000
4.407,0.191000,-0.811000,0.524000,-3.290000,38.176000,-37.313000,30.880000
4.414,0.179000,-0.858000,0.551000,0.015000,49.840000,-35.481000,30.840000
4.427,0.095000,-0.858000,0.553000,2.122000,53.298000,-28.756000,30.840000
4.434,-0.048000,-0.831000,0.547000,-1.664000,51.267000,-26.061000,30.790000
4.445,-0.124000,-0.771000,0.566000,-8.534000,44.641000,-26.359000,30.790000
4.457,-0.108000,-0.763000,0.566000,-18.053000,36.473000,-26.359000,30.930000
4.465,0.034000,-0.753000,0.555000,-19.656000,31.840000,-27.588000,30.840000
4.477,0.116000,-0.792000,0.557000,-18.580000,36.756000,-24.191000,30.880000
4.484,0.076000,-0.836000,0.528000,-19.008000,36.084000,-14.565000,30.840000
4.495,-0.055000,-0.812000,0.503000,-21.641000,30.214000,-4.916000,30.840000
4.502,-0.187000,-0.801000,0.466000,-28.527000,17.038000,0.748000,30.790000
4.515,-0.176000,-0.799000,0.425000,-32.985000,7.336000,-1.053000,30.880000
4.527,0.012000,-0.838000,0.413000,-29.794000,9.695000,-6.908000,30.840000
4.534,0.171000,-0.868000,0.409000,-19.695000,26.206000,-10.779000,30.880000
4.546,0.220000,-0.960000,0.382000,-10.069000,34.038000,-7.580000,30.980000
4.553,0.120000,-0.992000,0.400000,-5.496000,33.779000,-0.962000,30.840000
4.565,-0.019000,-0.988000,0.399000,-7.168000,27.099000,3.405000,30.840000
4.574,-0.123000,-0.971000,0.394000,-11.046000,17.206000,5.557000,30.790000
4.585,-0.168000,-0.974000,0.374000,-15.176000,6.092000,5.664000,30.740000
4.597,-0.121000,-0.979000,0.366000,-19.198000,-10.870000,7.947000,30.930000
4.604,-0.045000,-0.958000,0.387000,-14.733000,-16.542000,8.817000,30.840000
4.616,0.098000,-0.966000,0.427000,-11.542000,-13.069000,7.489000,30.790000
4.624,0.084000,-0.930000,0.456000,-7.344000,-2.137000,5.679000,30.840000
4.636,0.032000,-0.923000,0.446000,-3.931000,8.954000,0.863000,30.980000
4.642,0.016000,-0.970000,0.406000,-2.939000,15.076000,-4.588000,30.880000
4.655,0.018000,-0.995000,0.392000,-0.099000,22.153000,-10.794000,30.840000
4.668,0.021000,-1.020000,0.368000,5.710000,19.679000,-12.046000,30.740000
4.674,0.050000,-0.999000,0.401000,11.191000,13.420000,-10.992000,30.790000
4.686,0.056000,-0.941000,0.468000,11.847000,12.160000,-10.275000,30.740000
4.693,0.025000,-0.923000,0.497000,9.130000,12.084000,-8.763000,30.840000
4.706,-0.003000,-0.901000,0.489000,6.427000,11.687000,-7.885000,30.880000
4.716,-0.005000,-0.897000,0.497000,2.382000,15.000000,-8.405000,30.880000
4.726,-0.004000,-0.904000,0.474000,-0.412000,20.779000,-10.321000,30.840000
4.737,0.025000,-0.898000,0.480000,-0.565000,23.672000,-10.733000,30.930000
4.744,0.030000,-0.922000,0.442000,-5.496000,22.588000,-10.107000,30.880000
4.756,0.143000,-0.851000,0.500000,0.389000,35.137000,-12.924000,30.840000
4.765,0.149000,-0.838000,0.500000,0.038000,51.374000,-14.031000,30.840000
4.776,0.044000,-0.754000,0.532000,-1.542000,64.252000,-14.603000,30.880000
4.783,-0.150000,-0.711000,0.532000,-2.443000,60.893000,-8.908000,30.790000
4.795,-0.332000,-0.639000,0.521000,-15.954000,48.015000,-5.069000,30.840000
4.807,-0.412000,-0.613000,0.506000,-27.870000,27.687000,-4.076000,30.840000
4.815,-0.343000,-0.664000,0.471000,-34.046000,9.420000,-5.916000,30.790000
4.826,-0.221000,-0.684000,0.442000,-33.435000,3.153000,-11.489000,30.840000
4.833,-0.127000,-0.776000,0.447000,-26.076000,13.168000,-23.519000,30.930000
4.845,-0.082000,-0.847000,0.481000,-12.588000,13.160000,-30.000000,30.880000
4.857,0.025000,-0.873000,0.474000,-5.550000,23.588000,-40.656000,30.790000
4.865,0.062000,-0.922000,0.471000,2.237000,31.412000,-45.168000,30.840000
4.877,0.118000,-0.927000,0.471000,9.107000,42.496000,-46.756000,30.840000
4.884,0.103000,-0.914000,0.462000,11.992000,52.725000,-46.435000,30.880000
4.896,0.059000,-0.889000,0.430000,6.519000,54.733000,-42.191000,30.740000
4.902,-0.042000,-0.876000,0.386000,-3.931000,43.763000,-34.099000,30.740000
4.916,-0.006000,-0.926000,0.361000,-11.504000,26.634000,-25.351000,30.790000
4.928,0.065000,-0.968000,0.364000,-14.496000,15.237000,-17.015000,30.840000
4.934,0.153000,-1.012000,0.388000,-12.748000,12.053000,-11.573000,30.840000
4.946,0.225000,-1.038000,0.397000,-9.092000,18.756000,-9.107000,30.790000
4.953,0.198000,-1.034000,0.410000,-3.809000,31.855000,-8.908000,30.790000
4.965,0.133000,-0.977000,0.391000,1.023000,41.756000,-10.321000,30.840000
4.978,0.052000,-0.931000,0.362000,4.504000,46.061000,-12.076000,30.740000
4.985,0.034000,-0.905000,0.340000,6.351000,46.947000,-14.313000,30.790000
4.997,0.077000,-0.908000,0.318000,10.878000,45.214000,-13.947000,30.840000
5.004,0.043000,-0.872000,0.319000,6.809000,47.634000,-10.183000,30.840000
5.018,-0.093000,-0.890000,0.296000,-2.351000,31.191000,0.702000,30.840000
5.023,-0.176000,-0.893000,0.323000,-12.542000,5.130000,13.130000,30.880000
5.036,-0.138000,-0.904000,0.362000,-19.802000,-12.099000,19.802000,30.840000
5.047,-0.046000,-0.938000,0.392000,-17.626000,-13.511000,17.832000,30.880000
5.054,0.017000,-0.912000,0.404000,-12.847000,8.527000,6.435000,30.790000
5.068,-0.025000,-1.008000,0.337000,0.092000,34.817000,-11.634000,30.840000
5.074,-0.004000,-1.010000,0.292000,14.389000,50.916000,-24.954000,30.840000
5.086,-0.025000,-1.027000,0.229000,25.084000,54.031000,-30.725000,30.880000
5.092,-0.060000,-1.094000,0.197000,31.176000,39.305000,-27.802000,30.690000
5.104,-0.008000,-1.084000,0.230000,36.458000,27.473000,-23.015000,30.840000
5.118,0.040000,-1.038000,0.301000,38.328000,22.771000,-17.176000,30.790000
5.124,0.052000,-1.007000,0.328000,41.244000,25.573000,-13.565000,30.880000
5.136,0.071000,-0.995000,0.375000,43.786000,31.252000,-14.298000,30.840000
5.143,0.079000,-0.944000,0.406000,43.870000,40.137000,-15.420000,30.840000
5.155,0.038000,-0.898000,0.418000,39.740000,40.748000,-13.359000,30.880000
5.168,-0.003000,-0.868000,0.440000,31.740000,29.191000,-5.969000,30.840000
5.175,-0.011000,-0.891000,0.471000,27.298000,17.710000,2.282000,30.740000
5.187,0.009000,-0.858000,0.523000,20.649000,10.328000,11.038000,30.790000
5.194,0.028000,-0.838000,0.529000,12.679000,9.053000,16.450000,30.880000
5.206,0.053000,-0.840000,0.527000,8.763000,13.145000,17.771000,30.840000
5.215,0.071000,-0.825000,0.539000,7.611000,22.847000,16.565000,30.840000
5.227,0.057000,-0.853000,0.514000,8.290000,30.489000,13.427000,30.790000
5.233,0.088000,-0.833000,0.490000,6.550000,37.321000,13.763000,30.740000
5.245,0.038000,-0.842000,0.469000,2.939000,36.366000,21.634000,30.840000
5.257,-0.077000,-0.833000,0.431000,0.137000,27.046000,32.664000,30.790000
5.265,-0.188000,-0.793000,0.405000,-4.084000,16.496000,40.115000,30.790000
5.277,-0.280000,-0.757000,0.406000,-8.718000,1.099000,42.939000,30.930000
5.285,-0.286000,-0.746000,0.427000,-13.649000,-10.183000,39.962000,30.840000
5.296,-0.246000,-0.780000,0.442000,-16.618000,-21.550000,38.221000,30.880000
5.302,-0.150000,-0.830000,0.456000,-14.595000,-28.183000,36.313000,30.840000
5.315,-0.093000,-0.857000,0.477000,-8.908000,-26.656000,33.389000,30.840000
5.327,-0.080000,-0.883000,0.515000,-2.038000,-18.916000,26.855000,30.880000
5.334,-0.063000,-0.914000,0.535000,2.885000,-14.427000,21.069000,30.790000
5.346,-0.032000,-0.911000,0.532000,0.954000,-8.603000,15.687000,30.840000
5.353,-0.029000,-0.906000,0.531000,-2.855000,-4.412000,15.733000,30.790000
5.365,-0.001000,-0.939000,0.515000,-7.183000,-5.405000,21.573000,30.790000
5.377,0.011000,-0.946000,0.507000,-13.115000,-7.298000,28.763000,30.840000
5.386,0.008000,-0.950000,0.494000,-19.481000,-7.733000,36.733000,30.840000
5.397,-0.001000,-1.046000,0.457000,-21.664000,-16.893000,45.183000,30.880000
5.403,0.064000,-1.093000,0.410000,-19.031000,-15.710000,46.168000,30.880000
5.416,0.056000,-1.147000,0.371000,-7.870000,-13.763000,39.954000,30.740000
5.424,0.057000,-1.095000,0.374000,4.847000,1.947000,24.305000,30.930000
5.436,-0.077000,-1.093000,0.342000,10.382000,6.260000,16.336000,30.880000
5.447,-0.113000,-1.042000,0.320000,18.641000,5.702000,16.298000,30.930000
5.454,-0.097000,-0.980000,0.348000,30.153000,3.237000,26.046000,30.930000
5.467,-0.221000,-0.819000,0.414000,32.267000,-9.557000,40.321000,30.880000
5.474,-0.331000,-0.677000,0.491000,25.634000,-10.809000,42.672000,30.880000
5.486,-0.357000,-0.610000,0.551000,15.191000,-15.260000,36.695000,30.840000
5.492,-0.355000,-0.623000,0.577000,9.748000,-11.023000,25.023000,30.880000
5.505,-0.279000,-0.632000,0.591000,8.649000,1.695000,9.565000,30.880000
5.518,-0.257000,-0.722000,0.541000,9.382000,10.855000,-1.542000,30.930000
5.525,-0.228000,-0.845000,0.475000,11.924000,11.229000,-7.405000,30.930000
5.537,-0.187000,-0.958000,0.391000,17.649000,11.198000,-8.534000,30.790000
5.543,-0.166000,-1.005000,0.373000,21.183000,4.069000,-4.954000,30.880000
5.556,-0.163000,-0.999000,0.394000,21.977000,-3.412000,-0.145000,30.930000
5.564,-0.134000,-0.958000,0.437000,20.855000,-8.992000,3.534000,30.840000
5.575,-0.083000,-0.920000,0.502000,19.275000,-11.977000,6.710000,30.880000
5.587,-0.083000,-0.892000,0.561000,13.962000,-14.336000,11.840000,30.840000
5.594,-0.053000,-0.826000,0.590000,13.939000,-12.206000,11.115000,30.840000
5.606,-0.097000,-0.800000,0.618000,11.397000,-5.679000,9.328000,30.790000
5.614,-0.149000,-0.793000,0.591000,7.672000,-8.695000,12.565000,30.840000
5.626,-0.215000,-0.780000,0.583000,2.931000,-8.107000,10.069000,30.930000
5.633,-0.193000,-0.777000,0.570000,-0.527000,-2.290000,6.328000,30.880000
5.645,-0.234000,-0.802000,0.548000,-5.282000,-8.985000,7.137000,30.880000
5.657,-0.210000,-0.834000,0.532000,-7.305000,-13.260000,7.534000,30.840000
5.665,-0.177000,-0.852000,0.513000,-11.740000,-14.763000,9.779000,30.790000
5.677,-0.158000,-0.898000,0.491000,-12.427000,-18.595000,10.351000,30.790000
5.683,-0.161000,-0.931000,0.484000,-11.817000,-19.847000,12.473000,30.840000
5.695,-0.172000,-0.934000,0.454000,-11.198000,-15.023000,10.924000,30.840000
5.707,-0.217000,-0.887000,0.451000,-8.794000,-11.634000,6.168000,30.790000
5.716,-0.268000,-0.877000,0.438000,-9.931000,-17.550000,5.099000,30.840000
5.727,-0.270000,-0.887000,0.415000,-10.435000,-25.985000,2.702000,30.740000
5.735,-0.242000,-0.891000,0.416000,-12.023000,-29.244000,-1.443000,30.790000
5.745,-0.162000,-0.923000,0.409000,-8.947000,-37.038000,-4.504000,30.880000
5.757,-0.075000,-0.923000,0.445000,-5.466000,-37.817000,-7.489000,30.840000
5.766,-0.014000,-0.858000,0.482000,-5.824000,-31.458000,-11.664000,30.840000
5.777,-0.044000,-0.854000,0.489000,-5.023000,-29.130000,-19.496000,30.790000
5.783,-0.125000,-0.751000,0.507000,-8.115000,-22.710000,-32.710000,30.840000
5.795,-0.033000,-0.773000,0.487000,-0.824000,-2.618000,-43.313000,30.930000
5.808,0.060000,-0.929000,0.430000,9.580000,10.298000,-37.687000,30.880000
5.815,-0.101000,-0.912000,0.356000,32.992000,6.229000,-28.756000,30.880000
5.827,-0.132000,-0.906000,0.350000,22.191000,-0.733000,-16.328000,30.840000
5.834,-0.185000,-0.897000,0.337000,14.618000,-18.397000,-7.649000,30.840000
5.846,-0.110000,-0.908000,0.374000,12.954000,-33.954000,2.191000,30.880000
5.852,-0.073000,-0.898000,0.410000,15.626000,-38.145000,7.046000,30.840000
5.865,-0.034000,-0.892000,0.456000,20.672000,-35.962000,6.748000,30.930000
5.877,-0.045000,-0.877000,0.507000,24.244000,-38.405000,6.878000,30.880000
5.884,-0.033000,-0.816000,0.531000,25.779000,-26.710000,-1.794000,30.840000
5.896,-0.021000,-0.796000,0.570000,25.397000,-15.145000,-7.870000,30.930000
5.903,-0.039000,-0.786000,0.584000,25.748000,-5.710000,-9.992000,30.880000
5.916,-0.055000,-0.787000,0.578000,24.687000,-1.260000,-9.427000,30.880000
5.927,-0.073000,-0.813000,0.568000,19.924000,-0.931000,-6.649000,30.840000
5.936,-0.081000,-0.836000,0.537000,14.328000,-9.000000,-0.985000,30.790000
5.947,-0.076000,-0.880000,0.524000,9.458000,-15.908000,3.038000,30.880000
5.954,-0.051000,-0.930000,0.525000,4.267000,-20.000000,7.878000,30.930000
5.966,-0.004000,-0.954000,0.520000,9.977000,-18.618000,7.534000,30.930000
5.975,-0.015000,-0.935000,0.549000,10.863000,-15.023000,6.176000,30.880000
5.987,-0.036000,-0.942000,0.533000,11.626000,-11.786000,4.336000,30.790000
5.998,-0.070000,-0.908000,0.536000,12.321000,-10.916000,3.031000,30.840000
6.004,-0.061000,-0.910000,0.516000,13.756000,-8.901000,3.305000,30.790000
6.018,-0.070000,-0.878000,0.490000,13.092000,-8.412000,8.000000,30.880000
6.024,-0.113000,-0.857000,0.480000,12.015000,-8.008000,11.710000,30.840000
6.037,-0.156000,-0.842000,0.492000,9.374000,-12.550000,12.847000,30.840000
6.043,-0.104000,-0.836000,0.527000,8.779000,-14.435000,8.969000,30.790000
6.055,-0.041000,-0.844000,0.573000,10.374000,-3.198000,1.947000,30.840000
6.064,0.032000,-0.821000,0.588000,16.687000,10.473000,-9.840000,30.840000
6.075,0.075000,-0.854000,0.580000,19.000000,23.122000,-16.817000,30.880000
6.087,0.091000,-0.888000,0.541000,23.038000,31.069000,-23.023000,30.880000
6.094,0.070000,-0.930000,0.494000,26.000000,38.084000,-28.824000,30.840000
6.106,0.152000,-0.943000,0.451000,28.176000,49.260000,-35.695000,30.840000
6.115,0.214000,-0.951000,0.432000,33.847000,63.244000,-41.962000,30.880000
6.126,0.220000,-0.961000,0.432000,41.878000,73.634000,-43.458000,30.740000
6.137,0.246000,-0.852000,0.429000,52.015000,82.412000,-49.626000,30.840000
6.144,0.154000,-0.806000,0.490000,58.664000,100.031000,-57.084000,30.880000
6.157,0.075000,-0.758000,0.508000,65.809000,113.008000,-64.718000,30.880000
6.164,-0.010000,-0.649000,0.572000,61.924000,130.244000,-80.290000,30.740000
6.176,-0.103000,-0.614000,0.605000,66.122000,143.534000,-95.008000,30.880000
6.188,-0.155000,-0.606000,0.568000,65.221000,146.802000,-103.931000,30.790000
6.194,-0.086000,-0.622000,0.619000,73.870000,160.878000,-115.740000,30.840000
6.206,-0.090000,-0.647000,0.619000,73.885000,174.435000,-117.420000,30.930000
6.215,-0.149000,-0.669000,0.631000,78.870000,178.985000,-113.702000,30.790000
6.225,-0.181000,-0.694000,0.642000,80.481000,173.519000,-105.344000,30.840000
6.237,-0.264000,-0.681000,0.664000,74.664000,160.985000,-94.076000,30.840000
6.243,-0.293000,-0.654000,0.678000,62.824000,141.710000,-77.992000,30.840000
6.255,-0.346000,-0.622000,0.702000,45.260000,112.893000,-60.977000,30.790000
6.261,-0.311000,-0.590000,0.713000,34.870000,86.450000,-44.740000,30.930000
6.275,-0.337000,-0.597000,0.729000,16.656000,62.008000,-25.710000,30.880000
6.287,-0.338000,-0.586000,0.710000,2.328000,38.427000,-11.053000,30.790000
6.294,-0.314000,-0.621000,0.671000,-11.229000,12.687000,4.206000,30.840000
6.306,-0.270000,-0.647000,0.649000,-20.763000,-4.107000,15.924000,30.840000
6.315,-0.222000,-0.670000,0.640000,-26.115000,-12.618000,22.931000,30.880000
6.326,-0.195000,-0.690000,0.612000,-29.733000,-24.153000,30.397000,30.930000
6.337,-0.154000,-0.698000,0.593000,-30.565000,-32.649000,36.954000,31.020000
6.343,-0.141000,-0.687000,0.577000,-31.076000,-38.305000,42.809000,30.790000
6.355,-0.141000,-0.685000,0.558000,-31.947000,-43.366000,46.740000,30.790000
6.363,-0.127000,-0.720000,0.556000,-28.046000,-48.153000,47.336000,30.840000
6.375,-0.133000,-0.750000,0.566000,-23.626000,-51.252000,46.550000,30.840000
6.387,-0.115000,-0.774000,0.572000,-17.282000,-48.382000,43.160000,30.790000
6.393,-0.100000,-0.767000,0.581000,-13.718000,-41.718000,38.313000,30.740000
6.405,-0.090000,-0.748000,0.616000,-11.710000,-28.550000,30.473000,30.930000
6.418,-0.130000,-0.740000,0.640000,-10.260000,-20.046000,26.725000,30.880000
6.425,-0.145000,-0.725000,0.631000,-8.229000,-14.863000,23.641000,30.840000
6.436,-0.142000,-0.738000,0.631000,-5.435000,-8.634000,19.954000,30.840000
6.443,-0.132000,-0.741000,0.631000,-1.389000,-3.618000,16.817000,30.880000
6.456,-0.155000,-0.738000,0.625000,0.802000,0.473000,14.153000,30.880000
6.464,-0.174000,-0.729000,0.626000,1.168000,3.557000,10.389000,30.840000
6.476,-0.198000,-0.734000,0.623000,0.420000,4.496000,6.656000,30.880000
6.483,-0.207000,-0.760000,0.608000,0.069000,4.191000,2.664000,30.880000
6.495,-0.200000,-0.770000,0.603000,0.786000,3.229000,-1.076000,30.840000
6.507,-0.188000,-0.774000,0.590000,-0.389000,6.076000,-3.489000,30.840000
6.515,-0.191000,-0.768000,0.585000,0.634000,6.824000,-3.992000,30.790000
6.527,-0.196000,-0.771000,0.584000,2.130000,8.008000,-3.740000,30.740000
6.534,-0.195000,-0.758000,0.577000,4.115000,6.748000,-3.282000,30.840000
6.546,-0.197000,-0.757000,0.569000,4.534000,1.908000,-2.870000,30.980000
6.553,-0.218000,-0.734000,0.587000,4.511000,-1.748000,-1.687000,30.880000
6.567,-0.222000,-0.732000,0.594000,4.763000,-4.473000,-1.168000,30.840000
6.573,-0.197000,-0.735000,0.590000,4.328000,-6.382000,-1.053000,30.790000
6.586,-0.169000,-0.741000,0.585000,4.832000,-6.992000,-1.237000,30.790000
6.597,-0.150000,-0.734000,0.585000,6.237000,-10.145000,-0.786000,30.930000
6.604,-0.144000,-0.719000,0.610000,7.420000,-7.290000,-1.580000,30.930000
6.618,-0.141000,-0.708000,0.621000,8.382000,-7.573000,-1.275000,30.790000
6.624,-0.133000,-0.719000,0.626000,8.641000,-10.229000,-1.076000,30.840000
6.636,-0.125000,-0.729000,0.630000,9.504000,-12.779000,-0.313000,30.930000
6.643,-0.091000,-0.713000,0.666000,10.206000,-10.481000,-1.290000,31.020000
6.655,-0.083000,-0.696000,0.689000,8.496000,-4.924000,-2.099000,30.790000
6.668,-0.093000,-0.684000,0.684000,7.832000,-3.588000,-1.267000,30.840000
6.674,-0.096000,-0.689000,0.680000,6.939000,-5.878000,1.916000,30.840000
6.687,-0.101000,-0.615000,0.686000,3.870000,-3.450000,0.359000,30.880000
6.694,-0.125000,-0.653000,0.687000,0.466000,-7.015000,2.687000,30.930000
6.706,-0.116000,-0.657000,0.688000,-1.206000,-9.847000,3.656000,30.740000
6.716,-0.099000,-0.667000,0.687000,-1.214000,-12.603000,5.099000,30.790000
6.726,-0.097000,-0.663000,0.677000,-1.611000,-13.504000,5.427000,30.880000
6.738,-0.077000,-0.685000,0.671000,-0.542000,-11.870000,2.611000,30.930000
6.745,-0.069000,-0.682000,0.667000,-0.206000,-6.130000,-1.908000,30.880000
6.757,-0.059000,-0.691000,0.664000,1.252000,4.870000,-9.573000,30.880000
6.766,-0.069000,-0.705000,0.665000,2.244000,13.794000,-16.031000,30.840000
6.776,-0.076000,-0.711000,0.646000,4.908000,21.260000,-22.305000,30.930000
6.784,-0.060000,-0.709000,0.636000,7.458000,27.954000,-29.466000,30.880000
6.795,-0.062000,-0.730000,0.633000,7.153000,35.603000,-35.069000,30.840000
6.808,-0.064000,-0.739000,0.625000,9.137000,42.427000,-38.084000,30.840000
6.815,-0.076000,-0.755000,0.606000,10.802000,46.145000,-37.809000,30.790000
6.827,-0.109000,-0.777000,0.595000,11.817000,46.855000,-36.366000,30.880000
6.834,-0.137000,-0.772000,0.575000,12.695000,44.069000,-33.908000,30.930000
6.846,-0.155000,-0.772000,0.581000,13.351000,36.115000,-30.000000,30.790000
6.851,-0.174000,-0.778000,0.590000,12.496000,24.656000,-25.137000,30.880000
6.865,-0.171000,-0.755000,0.583000,10.023000,16.893000,-19.603000,30.930000
6.878,-0.162000,-0.746000,0.591000,8.420000,9.443000,-14.237000,30.840000
6.885,-0.151000,-0.752000,0.603000,6.878000,2.771000,-8.145000,30.880000
6.896,-0.119000,-0.745000,0.600000,3.450000,0.565000,-3.527000,30.880000
6.903,-0.120000,-0.740000,0.619000,2.962000,-2.534000,2.519000,30.840000
6.916,-0.135000,-0.718000,0.635000,3.053000,-7.435000,8.191000,30.840000
6.925,-0.133000,-0.694000,0.657000,3.053000,-10.405000,10.511000,30.790000
6.935,-0.114000,-0.693000,0.673000,3.206000,-13.847000,10.496000,30.930000
6.947,-0.129000,-0.675000,0.679000,2.916000,-16.962000,12.298000,30.840000
6.954,-0.120000,-0.656000,0.689000,2.168000,-16.061000,12.389000,30.880000
6.968,-0.123000,-0.651000,0.691000,2.023000,-15.908000,12.198000,30.930000
6.974,-0.116000,-0.646000,0.693000,0.397000,-14.863000,11.702000,30.840000
6.985,-0.117000,-0.639000,0.697000,-0.672000,-14.031000,9.351000,30.880000
6.992,-0.126000,-0.644000,0.697000,-1.725000,-16.237000,8.710000,30.880000
7.005,-0.116000,-0.648000,0.703000,-2.534000,-17.863000,7.397000,30.930000
7.017,-0.078000,-0.656000,0.709000,-3.260000,-16.122000,5.366000,30.980000
7.024,-0.043000,-0.667000,0.711000,-3.221000,-12.252000,3.015000,30.880000
7.036,0.014000,-0.679000,0.715000,-3.427000,-1.244000,-1.847000,30.840000
7.043,0.031000,-0.697000,0.694000,-3.649000,10.794000,-5.542000,30.840000
7.055,0.029000,-0.721000,0.677000,-2.412000,22.603000,-9.168000,30.880000
7.064,0.014000,-0.734000,0.657000,0.015000,35.053000,-14.206000,30.740000
7.075,-0.046000,-0.749000,0.644000,1.817000,44.901000,-18.679000,30.840000
7.087,-0.085000,-0.758000,0.613000,2.672000,50.198000,-22.351000,30.790000
7.094,-0.100000,-0.777000,0.621000,3.679000,51.076000,-24.786000,30.790000
7.106,-0.135000,-0.768000,0.595000,0.656000,52.565000,-23.939000,30.840000
7.115,-0.175000,-0.774000,0.575000,-0.359000,50.908000,-22.809000,30.790000
7.125,-0.200000,-0.775000,0.556000,-2.725000,47.237000,-20.298000,30.880000
7.138,-0.212000,-0.779000,0.552000,-3.840000,41.756000,-17.260000,30.840000
7.144,-0.231000,-0.786000,0.535000,-4.359000,35.527000,-14.160000,30.840000
7.156,-0.230000,-0.771000,0.540000,-6.328000,28.450000,-10.794000,30.790000
7.166,-0.239000,-0.758000,0.524000,-5.740000,21.244000,-7.313000,30.880000
7.175,-0.267000,-0.739000,0.522000,-3.939000,11.176000,-3.336000,30.840000
7.183,-0.222000,-0.727000,0.536000,-2.527000,5.145000,-2.092000,30.840000
7.195,-0.192000,-0.720000,0.580000,1.122000,0.725000,-1.939000,30.790000
7.207,-0.198000,-0.705000,0.594000,4.260000,-4.557000,-1.153000,30.740000
7.214,-0.170000,-0.680000,0.630000,6.237000,-7.885000,-1.344000,30.840000
7.227,-0.166000,-0.667000,0.642000,6.855000,-9.763000,-1.229000,30.880000
7.235,-0.164000,-0.660000,0.666000,7.542000,-11.977000,-1.435000,30.930000
7.246,-0.138000,-0.656000,0.681000,8.160000,-15.458000,-1.954000,30.840000
7.252,-0.120000,-0.658000,0.697000,8.076000,-16.321000,-2.496000,30.880000
7.266,-0.095000,-0.660000,0.710000,8.634000,-16.069000,-3.443000,30.790000
7.278,-0.080000,-0.653000,0.727000,7.481000,-14.641000,-4.298000,30.840000
7.284,-0.059000,-0.662000,0.744000,7.015000,-11.145000,-5.435000,30.880000
7.296,-0.034000,-0.669000,0.762000,5.374000,-7.107000,-5.908000,30.880000
7.303,-0.017000,-0.674000,0.765000,2.901000,-3.649000,-5.061000,30.930000
7.316,-0.021000,-0.684000,0.772000,-2.092000,2.275000,-3.450000,30.840000
7.325,-0.023000,-0.690000,0.757000,-6.511000,4.603000,0.015000,30.880000
7.335,-0.036000,-0.698000,0.725000,-11.351000,6.840000,4.321000,30.840000
7.348,-0.052000,-0.710000,0.683000,-15.351000,8.809000,7.580000,30.840000
7.354,-0.079000,-0.723000,0.637000,-18.115000,10.092000,10.931000,30.880000
7.368,-0.105000,-0.726000,0.606000,-20.321000,8.450000,13.802000,30.930000
7.374,-0.134000,-0.734000,0.582000,-20.855000,7.237000,14.840000,30.930000
7.386,-0.148000,-0.742000,0.568000,-21.092000,6.221000,15.809000,30.790000
7.393,-0.153000,-0.740000,0.557000,-19.008000,4.893000,14.359000,30.790000
7.405,-0.187000,-0.753000,0.543000,-16.611000,3.901000,12.992000,30.840000
7.418,-0.182000,-0.735000,0.533000,-13.450000,1.366000,11.550000,30.880000
7.425,-0.213000,-0.755000,0.533000,-6.046000,-3.756000,9.099000,30.880000
7.438,-0.202000,-0.738000,0.543000,-9.107000,-3.489000,6.969000,30.840000
7.443,-0.201000,-0.761000,0.551000,-3.679000,-8.031000,4.863000,30.840000
7.456,-0.149000,-0.754000,0.574000,0.427000,-10.878000,3.038000,30.980000
7.465,-0.136000,-0.741000,0.597000,3.687000,-10.603000,2.000000,30.840000
7.475,-0.132000,-0.733000,0.610000,6.908000,-10.718000,0.389000,30.930000
7.487,-0.109000,-0.738000,0.631000,7.359000,-10.458000,-0.580000,30.880000
7.494,-0.110000,-0.720000,0.628000,6.092000,-8.321000,-0.550000,30.840000
7.507,-0.107000,-0.721000,0.640000,4.397000,-5.458000,0.427000,30.840000
7.515,-0.105000,-0.714000,0.642000,2.519000,-2.305000,0.908000,30.880000
7.528,-0.129000,-0.707000,0.656000,0.969000,1.122000,0.893000,30.880000
7.534,-0.126000,-0.708000,0.662000,-0.664000,1.053000,0.496000,30.740000
7.546,-0.123000,-0.710000,0.658000,-2.450000,1.168000,-0.061000,30.880000
7.553,-0.114000,-0.714000,0.654000,-2.832000,0.183000,-0.397000,30.880000
7.566,-0.106000,-0.719000,0.657000,-1.824000,-2.641000,0.893000,30.930000
7.578,-0.108000,-0.714000,0.663000,-3.069000,-1.092000,1.901000,30.840000
7.585,-0.116000,-0.711000,0.645000,-4.107000,-0.595000,2.740000,30.880000
7.597,-0.139000,-0.723000,0.646000,-5.802000,-1.405000,3.672000,30.840000
7.604,-0.135000,-0.734000,0.626000,-6.931000,-1.298000,3.420000,30.840000
7.617,-0.125000,-0.741000,0.599000,-7.802000,0.771000,2.427000,30.880000
7.624,-0.117000,-0.750000,0.584000,-7.214000,2.198000,1.786000,30.790000
7.636,-0.125000,-0.753000,0.573000,-6.015000,2.130000,2.397000,30.840000
7.643,-0.124000,-0.752000,0.566000,-3.550000,0.244000,2.565000,30.880000
7.655,-0.142000,-0.743000,0.571000,-0.198000,-1.466000,2.527000,30.980000
7.661,-0.143000,-0.741000,0.583000,1.824000,-2.847000,0.802000,30.840000
7.675,-0.122000,-0.751000,0.584000,3.595000,-5.176000,0.038000,30.880000
7.687,-0.121000,-0.744000,0.600000,5.313000,-6.282000,-0.313000,30.880000
7.694,-0.100000,-0.733000,0.606000,6.427000,-5.771000,-0.389000,30.930000
7.706,-0.094000,-0.724000,0.624000,5.840000,-3.939000,0.031000,30.840000
7.716,-0.103000,-0.725000,0.627000,5.229000,-2.580000,0.809000,30.880000
7.726,-0.107000,-0.719000,0.624000,3.771000,-2.038000,1.954000,30.930000
7.733,-0.113000,-0.719000,0.633000,2.618000,-2.969000,2.718000,30.840000
7.745,-0.116000,-0.718000,0.619000,1.870000,-3.405000,3.092000,30.790000
7.752,-0.125000,-0.718000,0.628000,1.901000,-4.740000,3.229000,30.790000
7.766,-0.121000,-0.719000,0.635000,1.916000,-5.893000,3.176000,30.840000
7.777,-0.116000,-0.715000,0.641000,2.725000,-8.435000,3.237000,30.880000
7.785,-0.120000,-0.729000,0.638000,3.046000,-11.496000,4.282000,30.790000
7.797,-0.105000,-0.713000,0.649000,1.656000,-7.130000,2.832000,30.930000
7.804,-0.105000,-0.724000,0.639000,0.267000,-2.031000,1.901000,30.930000
7.817,-0.112000,-0.733000,0.619000,-0.939000,1.412000,1.664000,30.790000
7.824,-0.123000,-0.730000,0.600000,-1.679000,3.679000,1.458000,30.840000
7.836,-0.151000,-0.728000,0.614000,-0.496000,3.176000,1.443000,30.930000
7.843,-0.155000,-0.726000,0.600000,0.756000,0.160000,0.947000,30.840000
7.855,-0.154000,-0.728000,0.613000,1.130000,-3.252000,0.527000,30.880000
7.875,-0.144000,-0.724000,0.616000,2.038000,-6.061000,0.832000,30.840000
7.875,-0.147000,-0.727000,0.617000,1.863000,-9.809000,2.313000,30.880000
