time_sec,ax,ay,az,gx,gy,gz,temp_c
0.027,0.330000,0.106000,0.913000,-0.221000,1.656000,-0.153000,21.050000
0.027,0.348000,0.107000,0.906000,0.382000,0.748000,-1.046000,21.050000
0.028,0.341000,0.102000,0.909000,1.168000,-0.496000,-0.374000,21.050000
0.040,0.331000,0.111000,0.909000,1.053000,-0.267000,0.305000,21.140000
0.047,0.337000,0.110000,0.912000,0.496000,-0.450000,0.534000,21.050000
0.060,0.353000,0.105000,0.919000,-0.878000,-0.107000,0.229000,21.050000
0.067,0.364000,0.102000,0.916000,-0.565000,0.542000,-0.160000,21.140000
0.079,0.355000,0.102000,0.908000,0.122000,1.878000,0.893000,21.050000
0.087,0.346000,0.100000,0.906000,0.740000,2.290000,0.947000,21.050000
0.099,0.348000,0.106000,0.915000,0.336000,2.282000,1.542000,21.050000
0.106,0.343000,0.107000,0.916000,0.443000,1.863000,1.786000,21.190000
0.119,0.344000,0.101000,0.925000,1.176000,0.870000,1.237000,21.090000
0.127,0.333000,0.108000,0.921000,0.710000,1.015000,1.191000,21.090000
0.139,0.325000,0.107000,0.919000,0.366000,1.061000,0.870000,21.090000
0.146,0.324000,0.109000,0.910000,-0.046000,0.840000,0.931000,21.090000
0.159,0.330000,0.109000,0.912000,0.076000,0.412000,1.046000,21.090000
0.166,0.333000,0.107000,0.905000,0.267000,-0.565000,0.870000,21.090000
0.178,0.335000,0.102000,0.913000,0.626000,-0.443000,0.702000,21.090000
0.191,0.334000,0.104000,0.915000,1.099000,0.076000,0.786000,21.090000
0.198,0.341000,0.105000,0.909000,1.695000,1.137000,0.870000,21.190000
0.211,0.337000,0.103000,0.904000,2.229000,1.901000,0.450000,21.090000
0.220,0.339000,0.107000,0.908000,2.198000,2.160000,-0.481000,21.090000
0.230,0.346000,0.111000,0.923000,2.511000,0.298000,-2.260000,21.090000
0.238,0.330000,0.119000,0.930000,1.137000,-0.916000,-1.504000,21.090000
0.250,0.330000,0.115000,0.923000,0.321000,-1.099000,-0.832000,21.090000
0.257,0.331000,0.116000,0.912000,-0.374000,-1.878000,0.298000,21.140000
0.270,0.348000,0.109000,0.915000,0.053000,-2.473000,0.893000,21.050000
0.277,0.351000,0.106000,0.913000,0.603000,-1.099000,1.191000,21.050000
0.289,0.349000,0.103000,0.912000,0.916000,0.977000,1.908000,21.050000
0.296,0.348000,0.094000,0.915000,1.443000,2.695000,1.786000,21.240000
0.310,0.351000,0.092000,0.917000,2.786000,4.641000,0.878000,21.140000
0.318,0.353000,0.095000,0.922000,3.947000,5.603000,0.221000,21.140000
0.329,0.335000,0.108000,0.917000,3.931000,6.786000,0.618000,21.140000
0.336,0.333000,0.117000,0.916000,3.328000,7.252000,0.779000,21.140000
0.349,0.321000,0.119000,0.922000,1.832000,5.733000,1.389000,21.240000
0.358,0.314000,0.115000,0.920000,1.267000,3.053000,1.313000,21.140000
0.370,0.320000,0.117000,0.917000,0.947000,0.992000,1.260000,21.140000
0.377,0.326000,0.113000,0.917000,0.443000,0.702000,1.710000,21.190000
0.388,0.333000,0.105000,0.904000,0.359000,0.603000,2.122000,21.090000
0.394,0.354000,0.104000,0.903000,1.847000,2.305000,2.130000,21.190000
0.410,0.344000,0.102000,0.916000,3.458000,4.763000,1.786000,21.190000
0.421,0.341000,0.108000,0.907000,4.710000,7.443000,1.176000,21.190000
0.428,0.334000,0.112000,0.917000,6.244000,9.527000,0.847000,21.190000
0.441,0.311000,0.119000,0.931000,6.221000,10.382000,0.672000,21.190000
0.448,0.303000,0.133000,0.939000,5.305000,9.450000,0.405000,21.090000
0.461,0.303000,0.129000,0.935000,3.481000,7.069000,0.458000,21.090000
0.468,0.310000,0.135000,0.945000,1.687000,3.779000,0.947000,21.190000
0.480,0.319000,0.130000,0.926000,0.443000,1.786000,1.916000,21.190000
0.487,0.329000,0.113000,0.920000,-0.115000,1.275000,2.466000,21.190000
0.500,0.340000,0.115000,0.920000,0.374000,2.115000,2.977000,21.190000
0.508,0.344000,0.113000,0.918000,0.832000,3.260000,2.565000,21.190000
0.520,0.343000,0.118000,0.917000,1.489000,3.802000,2.939000,21.190000
0.527,0.319000,0.114000,0.909000,2.015000,4.779000,3.298000,21.140000
0.540,0.304000,0.115000,0.915000,2.137000,4.725000,2.992000,21.140000
0.547,0.298000,0.116000,0.922000,1.450000,3.099000,2.786000,21.140000
0.560,0.296000,0.110000,0.916000,1.015000,0.756000,2.313000,21.140000
0.567,0.305000,0.117000,0.919000,0.634000,-0.527000,2.427000,21.140000
0.579,0.312000,0.109000,0.914000,0.702000,-1.275000,2.244000,21.240000
0.586,0.323000,0.104000,0.912000,1.321000,-0.115000,1.893000,21.140000
0.599,0.328000,0.106000,0.917000,1.908000,2.038000,1.954000,21.240000
0.608,0.330000,0.117000,0.927000,2.527000,3.771000,2.115000,21.140000
0.619,0.319000,0.118000,0.918000,2.878000,4.366000,2.405000,21.140000
0.626,0.318000,0.118000,0.921000,2.725000,4.985000,2.137000,21.240000
0.639,0.297000,0.130000,0.935000,2.427000,4.237000,2.137000,21.140000
0.646,0.303000,0.123000,0.930000,1.885000,3.130000,1.710000,21.240000
0.659,0.304000,0.120000,0.927000,0.511000,1.916000,1.511000,21.330000
0.665,0.304000,0.122000,0.933000,0.489000,1.206000,1.863000,21.240000
0.679,0.315000,0.111000,0.924000,1.214000,2.130000,2.351000,21.190000
0.691,0.312000,0.125000,0.923000,0.908000,1.389000,2.733000,21.190000
0.698,0.308000,0.114000,0.915000,1.069000,0.954000,3.214000,21.190000
0.711,0.311000,0.116000,0.921000,2.115000,1.687000,2.389000,21.280000
0.718,0.311000,0.113000,0.934000,2.611000,3.092000,1.511000,21.280000
0.731,0.306000,0.116000,0.929000,3.336000,3.160000,0.794000,21.280000
0.738,0.301000,0.121000,0.917000,2.962000,3.718000,0.824000,21.380000
0.750,0.300000,0.123000,0.929000,2.565000,3.237000,0.382000,21.190000
0.758,0.310000,0.116000,0.923000,2.229000,1.763000,0.183000,21.190000
0.770,0.306000,0.123000,0.938000,1.641000,1.634000,1.069000,21.050000
0.778,0.311000,0.120000,0.922000,1.198000,1.275000,1.840000,21.240000
0.790,0.314000,0.115000,0.922000,1.053000,1.420000,2.611000,21.240000
0.797,0.312000,0.114000,0.908000,1.153000,1.275000,2.779000,21.140000
0.810,0.308000,0.113000,0.919000,1.137000,1.878000,2.641000,21.330000
0.824,0.313000,0.121000,0.919000,1.115000,1.924000,2.435000,21.240000
0.831,0.312000,0.116000,0.916000,1.069000,1.718000,1.794000,21.330000
0.837,0.316000,0.121000,0.923000,2.099000,0.076000,0.802000,21.240000
0.850,0.323000,0.121000,0.925000,1.710000,0.252000,2.412000,21.240000
0.858,0.323000,0.124000,0.918000,1.954000,1.519000,3.313000,21.240000
0.870,0.310000,0.109000,0.914000,2.198000,1.183000,3.924000,21.240000
0.877,0.316000,0.121000,0.926000,2.550000,0.794000,4.183000,21.240000
0.889,0.317000,0.115000,0.932000,2.321000,1.107000,4.122000,21.240000
0.896,0.314000,0.123000,0.936000,1.840000,1.405000,4.153000,21.240000
0.910,0.320000,0.125000,0.940000,1.763000,2.557000,4.550000,21.240000
0.916,0.315000,0.128000,0.940000,1.893000,2.481000,5.099000,21.240000
0.929,0.326000,0.133000,0.940000,1.298000,2.947000,5.305000,21.240000
0.936,0.339000,0.120000,0.934000,2.573000,3.809000,4.947000,21.240000
0.949,0.351000,0.114000,0.941000,4.229000,6.740000,4.649000,21.190000
0.958,0.369000,0.104000,0.928000,5.954000,11.855000,4.389000,21.280000
0.969,0.391000,0.106000,0.945000,8.351000,18.206000,5.565000,21.280000
0.981,0.406000,0.120000,0.953000,11.679000,23.863000,7.847000,21.380000
0.988,0.402000,0.114000,0.958000,15.817000,29.779000,11.389000,21.280000
1.000,0.401000,0.123000,0.953000,18.252000,36.450000,13.977000,21.280000
1.008,0.404000,0.092000,0.961000,19.031000,42.260000,16.275000,21.280000
1.020,0.422000,0.083000,0.971000,20.137000,42.985000,17.015000,21.280000
1.027,0.471000,0.091000,0.976000,14.939000,46.420000,19.603000,21.190000
1.039,0.515000,0.054000,0.974000,19.450000,59.748000,22.595000,21.280000
1.046,0.582000,0.046000,0.997000,23.672000,79.458000,25.817000,21.280000
1.058,0.554000,0.064000,0.963000,28.458000,98.328000,32.511000,21.280000
1.071,0.550000,0.087000,0.990000,36.397000,117.183000,41.481000,21.280000
1.078,0.522000,0.144000,1.007000,41.351000,130.458000,49.748000,21.280000
1.090,0.485000,0.198000,1.062000,43.290000,140.817000,59.618000,21.380000
1.096,0.406000,0.231000,1.048000,43.206000,148.756000,66.275000,21.280000
1.109,0.341000,0.240000,1.058000,41.252000,154.458000,71.824000,21.330000
1.121,0.179000,0.235000,0.989000,38.588000,152.985000,71.069000,21.330000
1.130,0.166000,0.162000,1.010000,41.672000,152.351000,66.939000,21.330000
1.140,0.162000,0.126000,0.995000,47.153000,152.908000,62.412000,21.330000
1.147,0.196000,0.167000,1.039000,48.733000,165.908000,59.908000,21.330000
1.160,0.180000,0.236000,1.065000,46.588000,188.916000,62.321000,21.330000
1.167,0.055000,0.276000,1.037000,43.084000,205.740000,62.847000,21.330000
1.179,-0.103000,0.313000,1.002000,34.878000,211.748000,61.534000,21.420000
1.191,-0.237000,0.301000,0.955000,28.542000,206.351000,57.168000,21.330000
1.197,-0.321000,0.297000,0.913000,22.641000,191.718000,52.672000,21.330000
1.211,-0.340000,0.289000,0.869000,18.687000,177.023000,48.718000,21.330000
1.217,-0.353000,0.316000,0.874000,17.481000,157.557000,48.099000,21.330000
1.229,-0.344000,0.337000,0.890000,14.137000,141.893000,47.718000,21.330000
1.241,-0.366000,0.371000,0.921000,11.038000,134.229000,45.649000,21.240000
1.247,-0.351000,0.404000,0.924000,6.122000,141.290000,40.031000,21.330000
1.261,-0.375000,0.396000,0.912000,1.908000,144.855000,32.832000,21.330000
1.267,-0.382000,0.340000,0.873000,4.603000,151.992000,27.076000,21.330000
1.279,-0.365000,0.338000,0.837000,10.290000,166.221000,18.038000,21.190000
1.286,-0.376000,0.323000,0.791000,18.061000,177.023000,11.168000,21.380000
1.298,-0.409000,0.332000,0.774000,24.756000,189.626000,8.496000,21.380000
1.311,-0.500000,0.340000,0.760000,27.122000,190.267000,7.901000,21.380000
1.317,-0.581000,0.345000,0.737000,28.023000,181.076000,8.290000,21.380000
1.330,-0.619000,0.385000,0.748000,22.221000,172.435000,4.237000,21.380000
1.336,-0.645000,0.383000,0.730000,17.099000,164.298000,-1.534000,21.380000
1.348,-0.521000,0.338000,0.734000,18.458000,173.061000,-5.740000,21.380000
1.361,-0.458000,0.386000,0.739000,31.870000,193.069000,-5.954000,21.280000
1.368,-0.500000,0.366000,0.725000,43.893000,216.481000,-7.107000,21.380000
1.380,-0.607000,0.412000,0.721000,46.397000,238.947000,-10.771000,21.380000
1.386,-0.772000,0.413000,0.697000,45.664000,242.534000,-18.962000,21.280000
1.398,-0.873000,0.395000,0.658000,40.237000,236.405000,-27.656000,21.380000
1.411,-0.867000,0.419000,0.619000,32.519000,230.840000,-33.748000,21.380000
1.418,-0.829000,0.422000,0.589000,37.084000,228.351000,-37.802000,21.380000
1.429,-0.746000,0.514000,0.587000,39.649000,237.061000,-33.069000,21.330000
1.436,-0.857000,0.547000,0.582000,37.405000,245.832000,-26.000000,21.330000
1.448,-1.010000,0.488000,0.514000,31.374000,246.748000,-29.649000,21.330000
1.461,-1.164000,0.452000,0.466000,22.733000,234.351000,-39.053000,21.420000
1.468,-1.258000,0.371000,0.411000,13.557000,208.840000,-53.824000,21.330000
1.480,-1.199000,0.340000,0.367000,6.336000,185.275000,-69.519000,21.330000
1.486,-1.133000,0.332000,0.328000,-0.534000,169.290000,-77.099000,21.420000
1.498,-1.008000,0.282000,0.271000,2.802000,152.893000,-81.748000,21.330000
1.511,-0.950000,0.400000,0.284000,5.473000,150.710000,-68.397000,21.420000
1.518,-1.058000,0.315000,0.277000,8.282000,141.374000,-62.878000,21.420000
1.529,-1.136000,0.337000,0.244000,3.718000,133.962000,-69.145000,21.420000
1.536,-1.205000,0.260000,0.231000,-3.176000,119.664000,-83.573000,21.330000
1.548,-1.174000,0.178000,0.180000,-3.985000,103.237000,-96.023000,21.420000
1.561,-1.110000,0.198000,0.170000,-4.061000,89.672000,-98.260000,21.330000
1.567,-1.062000,0.083000,0.129000,-0.824000,79.672000,-104.359000,21.380000
1.579,-0.882000,0.182000,0.118000,5.214000,85.878000,-98.885000,21.280000
1.586,-0.879000,0.149000,0.093000,10.313000,99.267000,-88.702000,21.380000
1.598,-0.928000,0.118000,0.035000,17.954000,115.389000,-88.809000,21.380000
1.611,-1.021000,0.089000,0.110000,25.137000,132.260000,-83.290000,21.470000
1.617,-1.138000,0.041000,0.056000,29.519000,113.038000,-92.702000,21.380000
1.629,-1.179000,0.071000,0.078000,23.595000,98.840000,-95.427000,21.380000
1.636,-1.036000,0.045000,0.083000,22.313000,89.183000,-93.557000,21.280000
1.648,-0.989000,0.060000,0.025000,23.351000,93.313000,-94.359000,21.470000
1.660,-1.013000,0.040000,0.010000,28.359000,101.069000,-94.992000,21.380000
1.667,-1.116000,-0.035000,0.004000,34.107000,96.565000,-99.412000,21.380000
1.680,-1.144000,-0.020000,0.027000,34.748000,86.779000,-105.046000,21.470000
1.691,-1.087000,-0.015000,0.019000,28.595000,77.733000,-116.000000,21.470000
1.698,-0.980000,-0.074000,0.005000,24.412000,75.771000,-126.756000,21.380000
1.711,-0.842000,0.011000,-0.003000,23.626000,75.809000,-120.313000,21.380000
1.716,-0.868000,-0.088000,-0.030000,24.969000,73.847000,-111.588000,21.380000
1.728,-0.858000,-0.103000,-0.066000,29.359000,75.656000,-106.603000,21.380000
1.740,-0.889000,-0.102000,-0.061000,29.748000,76.336000,-100.611000,21.420000
1.747,-0.950000,-0.177000,-0.074000,32.611000,72.611000,-99.145000,21.420000
1.759,-0.916000,-0.121000,-0.073000,34.878000,72.000000,-100.695000,21.420000
1.772,-0.904000,-0.151000,-0.079000,33.679000,70.214000,-103.397000,21.420000
1.778,-0.898000,-0.177000,-0.074000,34.992000,63.779000,-106.107000,21.420000
1.789,-0.799000,-0.100000,-0.062000,32.466000,64.267000,-102.489000,21.420000
1.795,-0.797000,-0.162000,-0.076000,29.382000,65.672000,-94.160000,21.420000
1.808,-0.833000,-0.214000,-0.111000,30.557000,64.763000,-85.008000,21.420000
1.820,-0.851000,-0.242000,-0.142000,32.794000,63.771000,-81.435000,21.420000
1.828,-0.865000,-0.279000,-0.140000,38.069000,59.985000,-82.389000,21.520000
1.838,-0.885000,-0.301000,-0.153000,43.794000,54.069000,-84.237000,21.330000
1.850,-0.842000,-0.244000,-0.148000,44.359000,50.763000,-84.481000,21.420000
1.858,-0.823000,-0.273000,-0.153000,42.794000,46.580000,-84.672000,21.520000
1.869,-0.779000,-0.287000,-0.153000,43.626000,43.237000,-84.214000,21.520000
1.876,-0.747000,-0.299000,-0.157000,42.954000,43.092000,-81.588000,21.520000
1.888,-0.728000,-0.394000,-0.162000,47.756000,43.634000,-82.069000,21.420000
1.900,-0.689000,-0.301000,-0.149000,51.771000,47.496000,-74.740000,21.420000
1.908,-0.761000,-0.355000,-0.144000,50.427000,50.695000,-72.718000,21.520000
1.918,-0.844000,-0.393000,-0.142000,49.115000,47.603000,-73.763000,21.470000
1.930,-0.861000,-0.405000,-0.179000,46.450000,38.847000,-76.573000,21.470000
1.937,-0.813000,-0.438000,-0.184000,47.985000,29.221000,-78.832000,21.470000
1.949,-0.734000,-0.380000,-0.158000,50.924000,25.939000,-73.519000,21.380000
1.955,-0.717000,-0.399000,-0.136000,51.053000,25.153000,-68.527000,21.470000
1.968,-0.778000,-0.401000,-0.118000,47.710000,25.466000,-62.267000,21.470000
1.980,-0.819000,-0.460000,-0.125000,45.573000,23.954000,-63.176000,21.470000
1.986,-0.802000,-0.474000,-0.125000,43.489000,24.763000,-67.702000,21.470000
1.998,-0.779000,-0.465000,-0.143000,44.252000,26.802000,-68.969000,21.380000
2.011,-0.733000,-0.402000,-0.165000,43.557000,29.687000,-66.649000,21.470000
2.018,-0.752000,-0.382000,-0.150000,36.328000,35.382000,-65.229000,21.520000
2.030,-0.834000,-0.465000,-0.169000,37.756000,34.748000,-64.664000,21.420000
2.035,-0.880000,-0.500000,-0.157000,39.916000,31.076000,-70.176000,21.520000
2.048,-0.835000,-0.536000,-0.141000,41.656000,30.931000,-79.901000,21.520000
2.061,-0.776000,-0.541000,-0.112000,42.305000,31.580000,-80.489000,21.420000
2.066,-0.698000,-0.507000,-0.118000,40.366000,37.107000,-77.282000,21.520000
2.079,-0.679000,-0.544000,-0.162000,37.634000,40.038000,-73.740000,21.520000
2.090,-0.675000,-0.550000,-0.199000,37.344000,38.763000,-69.099000,21.520000
2.097,-0.665000,-0.578000,-0.251000,36.145000,36.298000,-68.137000,21.420000
2.110,-0.611000,-0.663000,-0.275000,42.832000,31.580000,-68.832000,21.420000
2.115,-0.598000,-0.681000,-0.242000,48.740000,26.038000,-66.901000,21.520000
2.128,-0.552000,-0.649000,-0.146000,49.176000,19.626000,-62.863000,21.520000
2.140,-0.534000,-0.621000,-0.048000,44.076000,13.183000,-55.344000,21.520000
2.146,-0.453000,-0.560000,0.007000,31.450000,14.313000,-44.107000,21.420000
2.158,-0.432000,-0.595000,-0.004000,20.328000,20.214000,-26.718000,21.520000
2.171,-0.449000,-0.645000,-0.059000,14.771000,26.649000,-15.954000,21.520000
2.179,-0.511000,-0.676000,-0.124000,12.405000,29.427000,-9.321000,21.610000
2.189,-0.574000,-0.644000,-0.148000,9.496000,28.191000,-1.740000,21.610000
2.196,-0.604000,-0.659000,-0.145000,7.885000,28.252000,2.779000,21.520000
2.209,-0.622000,-0.611000,-0.139000,1.130000,30.611000,5.382000,21.520000
2.221,-0.735000,-0.709000,-0.136000,-1.290000,28.084000,5.519000,21.420000
2.228,-0.780000,-0.718000,-0.128000,-3.305000,19.344000,0.679000,21.520000
2.240,-0.724000,-0.691000,-0.104000,-4.954000,11.641000,-2.382000,21.520000
2.246,-0.603000,-0.594000,-0.137000,-13.985000,17.275000,5.687000,21.520000
2.258,-0.589000,-0.648000,-0.208000,-20.664000,26.458000,13.008000,21.520000
2.271,-0.668000,-0.744000,-0.276000,-17.397000,28.168000,13.389000,21.520000
2.278,-0.723000,-0.671000,-0.294000,-14.908000,24.359000,15.130000,21.570000
2.289,-0.725000,-0.729000,-0.301000,-13.183000,19.802000,9.756000,21.570000
2.296,-0.673000,-0.716000,-0.300000,-9.557000,17.328000,7.603000,21.470000
2.308,-0.652000,-0.714000,-0.289000,-5.733000,14.649000,10.336000,21.570000
2.320,-0.667000,-0.701000,-0.255000,-3.015000,7.511000,12.115000,21.470000
2.329,-0.640000,-0.638000,-0.217000,-5.313000,0.229000,17.947000,21.660000
2.340,-0.579000,-0.646000,-0.186000,-10.450000,-0.145000,21.603000,21.570000
2.345,-0.571000,-0.688000,-0.187000,-11.374000,-0.374000,26.672000,21.470000
2.358,-0.604000,-0.629000,-0.176000,-11.893000,-1.038000,37.809000,21.570000
2.371,-0.680000,-0.623000,-0.166000,-15.305000,-4.069000,44.893000,21.470000
2.377,-0.721000,-0.655000,-0.159000,-18.191000,-7.985000,45.634000,21.470000
2.389,-0.709000,-0.611000,-0.163000,-19.687000,-9.634000,48.305000,21.570000
2.400,-0.749000,-0.603000,-0.168000,-23.939000,-11.443000,50.992000,21.570000
2.408,-0.787000,-0.606000,-0.165000,-26.443000,-18.885000,50.160000,21.570000
2.419,-0.774000,-0.530000,-0.136000,-33.618000,-23.740000,52.664000,21.660000
2.431,-0.746000,-0.573000,-0.141000,-39.321000,-22.519000,53.153000,21.570000
2.437,-0.705000,-0.619000,-0.171000,-41.885000,-18.771000,51.389000,21.610000
2.449,-0.691000,-0.604000,-0.172000,-42.634000,-13.863000,51.321000,21.610000
2.458,-0.715000,-0.601000,-0.174000,-45.229000,-13.626000,52.191000,21.610000
2.468,-0.737000,-0.547000,-0.161000,-48.924000,-20.511000,52.008000,21.520000
2.480,-0.755000,-0.426000,-0.132000,-60.031000,-26.664000,59.763000,21.610000
2.486,-0.771000,-0.483000,-0.164000,-68.053000,-30.450000,63.282000,21.610000
2.498,-0.722000,-0.557000,-0.225000,-68.786000,-27.534000,60.817000,21.610000
2.510,-0.694000,-0.596000,-0.263000,-63.534000,-22.458000,57.870000,21.520000
2.517,-0.695000,-0.634000,-0.261000,-57.214000,-22.038000,49.985000,21.520000
2.529,-0.686000,-0.598000,-0.245000,-52.290000,-25.389000,41.038000,21.610000
2.540,-0.659000,-0.530000,-0.175000,-53.863000,-35.198000,40.359000,21.520000
2.547,-0.634000,-0.526000,-0.136000,-56.870000,-46.397000,41.573000,21.520000
2.559,-0.427000,-0.337000,-0.133000,-63.336000,-35.634000,59.015000,21.610000
2.573,-0.450000,-0.310000,-0.168000,-70.908000,-18.618000,89.405000,21.520000
2.580,-0.642000,-0.327000,-0.211000,-73.420000,-4.099000,107.328000,21.710000
2.589,-0.868000,-0.332000,-0.220000,-77.908000,-3.870000,103.092000,21.610000
2.596,-1.015000,-0.368000,-0.229000,-81.214000,-15.527000,87.763000,21.610000
2.608,-1.047000,-0.444000,-0.220000,-79.282000,-34.656000,61.718000,21.520000
2.621,-0.885000,-0.513000,-0.249000,-74.084000,-45.931000,35.053000,21.520000
2.629,-0.654000,-0.583000,-0.297000,-67.756000,-46.748000,20.809000,21.610000
2.638,-0.421000,-0.585000,-0.322000,-52.779000,-38.305000,18.855000,21.570000
2.650,-0.157000,-0.209000,-0.239000,-46.412000,-9.817000,56.160000,21.570000
2.658,-0.293000,-0.074000,-0.208000,-54.466000,16.672000,104.588000,21.660000
2.670,-0.660000,-0.005000,-0.214000,-71.817000,25.794000,135.443000,21.470000
2.681,-1.028000,0.014000,-0.264000,-92.595000,17.344000,143.221000,21.660000
2.687,-1.288000,-0.101000,-0.334000,-98.183000,-9.145000,132.206000,21.660000
2.699,-1.306000,-0.221000,-0.411000,-93.847000,-31.931000,105.550000,21.660000
2.708,-1.162000,-0.357000,-0.429000,-78.344000,-39.229000,73.076000,21.570000
2.718,-1.021000,-0.448000,-0.443000,-58.863000,-38.107000,45.214000,21.470000
2.730,-0.786000,-0.452000,-0.421000,-38.229000,-24.840000,24.145000,21.660000
2.736,-0.552000,-0.356000,-0.408000,-19.389000,-0.977000,26.282000,21.660000
2.748,-0.517000,-0.219000,-0.321000,-8.580000,18.420000,41.519000,21.660000
2.760,-0.502000,0.186000,-0.183000,-24.023000,36.260000,80.435000,21.570000
2.767,-0.766000,0.281000,-0.187000,-54.580000,38.992000,123.374000,21.570000
2.780,-1.030000,0.232000,-0.250000,-83.328000,21.366000,151.802000,21.660000
2.786,-1.194000,0.116000,-0.360000,-95.840000,-0.916000,155.885000,21.660000
2.798,-1.252000,-0.016000,-0.414000,-90.878000,-18.221000,136.382000,21.660000
2.810,-1.204000,-0.107000,-0.436000,-78.031000,-23.832000,110.389000,21.610000
2.816,-1.128000,-0.132000,-0.460000,-61.176000,-19.122000,88.634000,21.610000
2.828,-1.058000,-0.154000,-0.447000,-46.725000,-10.214000,68.954000,21.710000
2.840,-0.999000,-0.127000,-0.436000,-32.450000,1.099000,54.275000,21.710000
2.847,-0.979000,-0.053000,-0.389000,-24.359000,6.916000,44.489000,21.610000
2.859,-1.031000,0.010000,-0.296000,-24.053000,-5.496000,37.412000,21.610000
2.871,-1.020000,0.104000,-0.150000,-36.260000,-26.695000,34.748000,21.610000
2.878,-0.961000,0.039000,-0.107000,-52.931000,-49.931000,31.176000,21.610000
2.890,-0.666000,0.033000,-0.152000,-60.672000,-53.847000,39.450000,21.610000
2.896,-0.485000,0.078000,-0.209000,-65.557000,-39.947000,72.908000,21.710000
2.908,-0.536000,0.072000,-0.262000,-68.069000,-19.427000,102.511000,21.710000
2.922,-0.684000,0.104000,-0.291000,-70.855000,-3.168000,113.824000,21.610000
2.927,-0.862000,0.115000,-0.329000,-72.214000,1.809000,114.374000,21.610000
2.939,-1.014000,0.074000,-0.357000,-68.038000,-7.779000,103.466000,21.610000
2.951,-1.036000,0.040000,-0.320000,-60.328000,-25.069000,82.061000,21.610000
2.958,-0.942000,0.104000,-0.277000,-56.153000,-39.260000,70.740000,21.610000
2.971,-0.782000,0.097000,-0.268000,-50.221000,-40.779000,67.305000,21.610000
2.976,-0.626000,0.273000,-0.242000,-48.962000,-29.702000,82.038000,21.610000
2.988,-0.656000,0.317000,-0.261000,-49.710000,-13.756000,106.672000,21.660000
3.000,-0.770000,0.502000,-0.247000,-56.046000,-3.748000,129.214000,21.750000
3.008,-1.015000,0.616000,-0.248000,-70.962000,-6.794000,149.267000,21.660000
3.020,-1.225000,0.594000,-0.253000,-86.092000,-24.305000,150.908000,21.660000
3.031,-1.333000,0.480000,-0.275000,-92.885000,-44.450000,127.947000,21.750000
3.037,-1.381000,0.270000,-0.269000,-88.588000,-70.672000,94.771000,21.660000
3.050,-1.213000,0.069000,-0.291000,-73.435000,-85.511000,54.710000,21.570000
3.058,-0.802000,0.124000,-0.296000,-50.458000,-70.817000,37.466000,21.750000
3.068,-0.488000,0.214000,-0.289000,-25.565000,-31.160000,48.450000,21.660000
3.080,-0.462000,0.519000,-0.212000,-15.771000,13.702000,81.542000,21.660000
3.087,-0.787000,0.737000,-0.122000,-25.855000,32.962000,118.611000,21.660000
3.099,-1.220000,0.813000,-0.113000,-51.336000,18.351000,134.168000,21.660000
3.111,-1.428000,0.695000,-0.164000,-74.786000,-21.168000,127.214000,21.660000
3.118,-1.451000,0.476000,-0.189000,-79.740000,-64.977000,103.718000,21.750000
3.130,-1.273000,0.301000,-0.197000,-74.145000,-95.626000,74.473000,21.660000
3.136,-0.775000,0.267000,-0.254000,-55.985000,-83.374000,55.183000,21.710000
3.148,-0.365000,0.480000,-0.222000,-34.763000,-33.947000,75.603000,21.610000
3.160,-0.533000,0.610000,-0.191000,-25.924000,11.046000,108.305000,21.710000
3.168,-0.942000,0.703000,-0.137000,-27.977000,30.931000,123.916000,21.710000
3.179,-1.314000,0.732000,-0.109000,-41.275000,7.786000,115.939000,21.710000
3.191,-1.431000,0.687000,-0.091000,-58.137000,-35.710000,93.542000,21.800000
3.197,-1.343000,0.497000,-0.103000,-69.336000,-85.084000,63.870000,21.610000
3.209,-1.014000,0.411000,-0.123000,-67.328000,-113.580000,43.221000,21.710000
3.216,-0.604000,0.390000,-0.127000,-56.618000,-109.779000,41.107000,21.710000
3.228,-0.186000,0.448000,-0.182000,-37.153000,-67.176000,55.145000,21.710000
3.240,-0.128000,0.671000,-0.135000,-21.519000,-7.779000,97.405000,21.710000
3.247,-0.504000,0.756000,-0.093000,-13.237000,30.000000,130.954000,21.610000
3.259,-0.976000,0.858000,-0.036000,-21.122000,29.603000,136.840000,21.710000
3.272,-1.332000,0.796000,-0.010000,-37.099000,-6.847000,119.168000,21.610000
3.277,-1.417000,0.636000,-0.021000,-47.160000,-59.458000,84.695000,21.710000
3.289,-1.250000,0.538000,-0.010000,-47.282000,-107.611000,51.870000,21.800000
3.296,-0.961000,0.437000,0.004000,-44.626000,-134.076000,25.802000,21.710000
3.308,-0.600000,0.490000,0.030000,-32.221000,-133.122000,15.290000,21.710000
3.320,-0.342000,0.569000,0.130000,-22.748000,-110.748000,19.885000,21.660000
3.327,-0.248000,0.658000,0.177000,-14.924000,-82.351000,30.962000,21.660000
3.339,-0.254000,0.741000,0.203000,-24.061000,-52.672000,52.504000,21.850000
3.351,-0.231000,0.871000,0.218000,-29.603000,-28.962000,81.573000,21.750000
3.358,-0.294000,1.031000,0.214000,-38.954000,-10.672000,120.046000,21.750000
3.370,-0.478000,1.060000,0.186000,-48.588000,3.969000,153.198000,21.750000
3.376,-0.699000,1.031000,0.129000,-53.687000,16.733000,164.389000,21.660000
3.388,-1.016000,0.878000,0.045000,-54.618000,2.901000,151.901000,21.660000
3.400,-1.204000,0.729000,0.025000,-50.573000,-30.550000,117.191000,21.660000
3.408,-1.186000,0.630000,0.056000,-45.893000,-69.863000,77.656000,21.800000
3.419,-0.888000,0.645000,0.077000,-38.679000,-92.252000,47.267000,21.800000
3.426,-0.409000,0.887000,0.183000,-25.641000,-69.947000,49.595000,21.710000
3.438,-0.256000,1.115000,0.236000,-24.023000,-31.763000,80.878000,21.800000
3.450,-0.394000,1.205000,0.303000,-29.298000,-0.763000,109.786000,21.800000
3.458,-0.685000,1.199000,0.282000,-43.206000,7.267000,124.282000,21.800000
3.469,-0.939000,1.090000,0.198000,-50.481000,-3.939000,116.649000,21.710000
3.476,-1.028000,0.983000,0.146000,-49.786000,-29.634000,95.634000,21.710000
3.488,-0.920000,0.858000,0.117000,-37.954000,-43.237000,69.328000,21.710000
3.500,-0.726000,0.921000,0.115000,-28.267000,-43.794000,53.863000,21.800000
3.508,-0.569000,1.045000,0.133000,-18.489000,-22.939000,58.115000,21.800000
3.520,-0.570000,1.108000,0.158000,-13.893000,6.107000,66.679000,21.800000
3.526,-0.748000,1.124000,0.182000,-6.969000,28.053000,69.038000,21.800000
3.538,-0.957000,1.132000,0.180000,-5.496000,28.786000,60.321000,21.800000
3.550,-1.107000,1.088000,0.172000,-4.351000,12.061000,40.947000,21.710000
3.558,-1.129000,1.064000,0.154000,-4.901000,-9.374000,16.611000,21.800000
3.570,-1.027000,1.025000,0.163000,-0.718000,-25.313000,-6.733000,21.800000
3.578,-0.865000,1.012000,0.183000,5.969000,-28.137000,-24.496000,21.890000
3.588,-0.753000,1.013000,0.215000,10.573000,-23.489000,-35.687000,21.710000
3.601,-0.696000,1.029000,0.242000,10.496000,-17.588000,-42.053000,21.800000
3.608,-0.677000,1.009000,0.246000,9.756000,-15.466000,-45.947000,21.710000
3.620,-0.624000,1.015000,0.265000,9.664000,-13.107000,-46.634000,21.800000
3.627,-0.579000,1.046000,0.260000,7.321000,-6.115000,-39.863000,21.800000
3.639,-0.582000,1.030000,0.269000,7.985000,4.908000,-33.069000,21.850000
3.645,-0.624000,1.060000,0.249000,9.366000,18.397000,-27.160000,21.850000
3.658,-0.727000,1.073000,0.247000,13.107000,29.221000,-26.878000,21.850000
3.670,-0.846000,1.053000,0.222000,20.038000,34.214000,-36.374000,21.850000
3.677,-0.947000,1.104000,0.200000,25.092000,33.557000,-50.679000,21.850000
3.689,-1.019000,1.079000,0.199000,26.664000,25.794000,-70.832000,21.750000
3.696,-1.007000,1.105000,0.193000,30.130000,19.298000,-89.527000,21.750000
3.708,-0.975000,1.131000,0.209000,33.061000,12.924000,-99.542000,21.850000
3.720,-1.002000,1.141000,0.190000,33.466000,-1.344000,-116.160000,21.850000
3.727,-0.943000,1.278000,0.278000,25.405000,-22.244000,-125.550000,21.850000
3.739,-0.921000,1.264000,0.324000,12.771000,-35.794000,-124.527000,21.750000
3.751,-0.842000,1.151000,0.217000,0.397000,-53.382000,-134.824000,21.850000
3.758,-0.763000,1.018000,0.218000,6.718000,-56.260000,-137.954000,21.750000
3.769,-0.441000,0.648000,0.425000,42.947000,-34.092000,-139.061000,21.750000
3.791,-0.441000,0.648000,0.425000,42.947000,-34.092000,-139.061000,112.080000
3.819,-0.441000,0.648000,0.425000,42.947000,-34.092000,-139.061000,112.080000
3.841,-0.441000,0.648000,0.425000,42.947000,-34.092000,-139.061000,112.080000
3.869,-0.441000,0.648000,0.425000,42.947000,-34.092000,-139.061000,112.080000
3.891,-0.441000,0.648000,0.425000,42.947000,-34.092000,-139.061000,112.080000
3.913,-0.441000,0.648000,0.425000,42.947000,-34.092000,-139.061000,112.080000
3.941,-0.441000,0.648000,0.425000,42.947000,-34.092000,-139.061000,112.080000
3.964,-0.441000,0.648000,0.425000,42.947000,-34.092000,-139.061000,112.080000
3.991,-0.441000,0.648000,0.425000,42.947000,-34.092000,-139.061000,112.080000
4.014,-0.441000,0.648000,0.425000,42.947000,-34.092000,-139.061000,112.080000
4.041,-0.441000,0.648000,0.425000,42.947000,-34.092000,-139.061000,112.080000
4.063,-0.441000,0.648000,0.425000,42.947000,-34.092000,-139.061000,112.080000
4.091,-0.441000,0.648000,0.425000,42.947000,-34.092000,-139.061000,112.080000
4.113,-0.441000,0.648000,0.425000,42.947000,-34.092000,-139.061000,112.080000
4.141,-0.441000,0.648000,0.425000,42.947000,-34.092000,-139.061000,112.080000
4.163,-0.441000,0.648000,0.425000,42.947000,-34.092000,-139.061000,112.080000
4.185,-0.441000,0.648000,0.425000,42.947000,-34.092000,-139.061000,112.080000
4.213,-0.441000,0.648000,0.425000,42.947000,-34.092000,-139.061000,112.080000
4.235,-0.441000,0.648000,0.425000,42.947000,-34.092000,-139.061000,112.080000
4.263,-0.441000,0.648000,0.425000,42.947000,-34.092000,-139.061000,112.080000
4.286,-0.441000,0.648000,0.425000,42.947000,-34.092000,-139.061000,112.080000
4.313,-0.441000,0.648000,0.425000,42.947000,-34.092000,-139.061000,112.080000
4.335,-0.441000,0.648000,0.425000,42.947000,-34.092000,-139.061000,112.080000
4.363,-0.441000,0.648000,0.425000,42.947000,-34.092000,-139.061000,112.080000
4.385,-0.441000,0.648000,0.425000,42.947000,-34.092000,-139.061000,112.080000
4.413,-0.441000,0.648000,0.425000,42.947000,-34.092000,-139.061000,112.080000
4.435,-0.441000,0.648000,0.425000,42.947000,-34.092000,-139.061000,112.080000
4.458,-0.441000,0.648000,0.425000,42.947000,-34.092000,-139.061000,112.080000
4.485,-0.441000,0.648000,0.425000,42.947000,-34.092000,-139.061000,112.080000
4.508,-0.441000,0.648000,0.425000,42.947000,-34.092000,-139.061000,112.080000
4.535,-0.441000,0.648000,0.425000,42.947000,-34.092000,-139.061000,112.080000
4.558,-0.441000,0.648000,0.425000,42.947000,-34.092000,-139.061000,112.080000
4.585,-0.441000,0.648000,0.425000,42.947000,-34.092000,-139.061000,112.080000
4.608,-0.441000,0.648000,0.425000,42.947000,-34.092000,-139.061000,112.080000
4.635,-0.441000,0.648000,0.425000,42.947000,-34.092000,-139.061000,112.080000
4.657,-0.441000,0.648000,0.425000,42.947000,-34.092000,-139.061000,112.080000
4.686,-0.441000,0.648000,0.425000,42.947000,-34.092000,-139.061000,112.080000
4.708,-0.441000,0.648000,0.425000,42.947000,-34.092000,-139.061000,112.080000
4.730,-0.441000,0.648000,0.425000,42.947000,-34.092000,-139.061000,112.080000
4.758,-0.441000,0.648000,0.425000,42.947000,-34.092000,-139.061000,112.080000
4.781,-0.441000,0.648000,0.425000,42.947000,-34.092000,-139.061000,112.080000
4.808,-0.441000,0.648000,0.425000,42.947000,-34.092000,-139.061000,112.080000
4.830,-0.441000,0.648000,0.425000,42.947000,-34.092000,-139.061000,112.080000
4.858,-0.441000,0.648000,0.425000,42.947000,-34.092000,-139.061000,112.080000
4.880,-0.441000,0.648000,0.425000,42.947000,-34.092000,-139.061000,112.080000
4.908,-0.441000,0.648000,0.425000,42.947000,-34.092000,-139.061000,112.080000
4.930,-0.441000,0.648000,0.425000,42.947000,-34.092000,-139.061000,112.080000
4.958,-0.441000,0.648000,0.425000,42.947000,-34.092000,-139.061000,112.080000
4.980,-0.441000,0.648000,0.425000,42.947000,-34.092000,-139.061000,112.080000
5.002,-0.441000,0.648000,0.425000,42.947000,-34.092000,-139.061000,112.080000
5.030,-0.441000,0.648000,0.425000,42.947000,-34.092000,-139.061000,112.080000
5.052,-0.441000,0.648000,0.425000,42.947000,-34.092000,-139.061000,112.080000
5.080,-0.441000,0.648000,0.425000,42.947000,-34.092000,-139.061000,112.080000
5.102,-0.441000,0.648000,0.425000,42.947000,-34.092000,-139.061000,112.080000
5.130,-0.441000,0.648000,0.425000,42.947000,-34.092000,-139.061000,112.080000
5.152,-0.441000,0.648000,0.425000,42.947000,-34.092000,-139.061000,112.080000
5.180,-0.441000,0.648000,0.425000,42.947000,-34.092000,-139.061000,112.080000
5.202,-0.441000,0.648000,0.425000,42.947000,-34.092000,-139.061000,112.080000
5.225,-0.441000,0.648000,0.425000,42.947000,-34.092000,-139.061000,112.080000
5.252,-0.441000,0.648000,0.425000,42.947000,-34.092000,-139.061000,112.080000
5.275,-0.441000,0.648000,0.425000,42.947000,-34.092000,-139.061000,112.080000
5.302,-0.441000,0.648000,0.425000,42.947000,-34.092000,-139.061000,112.080000
5.325,-0.441000,0.648000,0.425000,42.947000,-34.092000,-139.061000,112.080000
5.352,-0.441000,0.648000,0.425000,42.947000,-34.092000,-139.061000,112.080000
5.374,-0.441000,0.648000,0.425000,42.947000,-34.092000,-139.061000,112.080000
5.402,-0.441000,0.648000,0.425000,42.947000,-34.092000,-139.061000,112.080000
5.425,-0.441000,0.648000,0.425000,42.947000,-34.092000,-139.061000,112.080000
5.452,-0.441000,0.648000,0.425000,42.947000,-34.092000,-139.061000,112.080000
5.475,-0.441000,0.648000,0.425000,42.947000,-34.092000,-139.061000,112.080000
5.496,-0.441000,0.648000,0.425000,42.947000,-34.092000,-139.061000,112.080000
5.524,-0.441000,0.648000,0.425000,42.947000,-34.092000,-139.061000,112.080000
5.546,-0.441000,0.648000,0.425000,42.947000,-34.092000,-139.061000,112.080000
5.574,-0.441000,0.648000,0.425000,42.947000,-34.092000,-139.061000,112.080000
5.596,-0.441000,0.648000,0.425000,42.947000,-34.092000,-139.061000,112.080000
5.624,-0.441000,0.648000,0.425000,42.947000,-34.092000,-139.061000,112.080000
5.646,-0.441000,0.648000,0.425000,42.947000,-34.092000,-139.061000,112.080000
5.674,-0.441000,0.648000,0.425000,42.947000,-34.092000,-139.061000,112.080000
5.696,-0.441000,0.648000,0.425000,42.947000,-34.092000,-139.061000,112.080000
5.724,-0.441000,0.648000,0.425000,42.947000,-34.092000,-139.061000,112.080000
5.746,-0.441000,0.648000,0.425000,42.947000,-34.092000,-139.061000,112.080000
5.769,-0.441000,0.648000,0.425000,42.947000,-34.092000,-139.061000,112.080000
5.796,-0.441000,0.648000,0.425000,42.947000,-34.092000,-139.061000,112.080000
5.819,-0.441000,0.648000,0.425000,42.947000,-34.092000,-139.061000,112.080000
5.846,-0.441000,0.648000,0.425000,42.947000,-34.092000,-139.061000,112.080000
5.869,-0.441000,0.648000,0.425000,42.947000,-34.092000,-139.061000,112.080000
5.896,-0.441000,0.648000,0.425000,42.947000,-34.092000,-139.061000,112.080000
5.919,-0.441000,0.648000,0.425000,42.947000,-34.092000,-139.061000,112.080000
5.946,-0.441000,0.648000,0.425000,42.947000,-34.092000,-139.061000,112.080000
5.969,-0.441000,0.648000,0.425000,42.947000,-34.092000,-139.061000,112.080000
5.996,-0.441000,0.648000,0.425000,42.947000,-34.092000,-139.061000,112.080000
6.020,-0.441000,0.648000,0.425000,42.947000,-34.092000,-139.061000,112.080000
6.041,-0.441000,0.648000,0.425000,42.947000,-34.092000,-139.061000,112.080000
6.069,-0.441000,0.648000,0.425000,42.947000,-34.092000,-139.061000,112.080000
6.091,-0.441000,0.648000,0.425000,42.947000,-34.092000,-139.061000,112.080000
6.119,-0.441000,0.648000,0.425000,42.947000,-34.092000,-139.061000,112.080000
6.141,-0.441000,0.648000,0.425000,42.947000,-34.092000,-139.061000,112.080000
6.169,-0.441000,0.648000,0.425000,42.947000,-34.092000,-139.061000,112.080000
6.191,-0.441000,0.648000,0.425000,42.947000,-34.092000,-139.061000,112.080000
6.219,-0.441000,0.648000,0.425000,42.947000,-34.092000,-139.061000,112.080000
6.241,-0.441000,0.648000,0.425000,42.947000,-34.092000,-139.061000,112.080000
6.269,-0.441000,0.648000,0.425000,42.947000,-34.092000,-139.061000,112.080000
6.291,-0.441000,0.648000,0.425000,42.947000,-34.092000,-139.061000,112.080000
6.313,-0.441000,0.648000,0.425000,42.947000,-34.092000,-139.061000,112.080000
6.341,-0.441000,0.648000,0.425000,42.947000,-34.092000,-139.061000,112.080000
6.363,-0.441000,0.648000,0.425000,42.947000,-34.092000,-139.061000,112.080000
6.391,-0.441000,0.648000,0.425000,42.947000,-34.092000,-139.061000,112.080000
6.413,-0.441000,0.648000,0.425000,42.947000,-34.092000,-139.061000,112.080000
6.441,-0.441000,0.648000,0.425000,42.947000,-34.092000,-139.061000,112.080000
6.463,-0.441000,0.648000,0.425000,42.947000,-34.092000,-139.061000,112.080000
6.491,-0.441000,0.648000,0.425000,42.947000,-34.092000,-139.061000,112.080000
6.513,-0.441000,0.648000,0.425000,42.947000,-34.092000,-139.061000,112.080000
6.541,-0.441000,0.648000,0.425000,42.947000,-34.092000,-139.061000,112.080000
6.563,-0.441000,0.648000,0.425000,42.947000,-34.092000,-139.061000,112.080000
6.585,-0.441000,0.648000,0.425000,42.947000,-34.092000,-139.061000,112.080000
6.613,-0.441000,0.648000,0.425000,42.947000,-34.092000,-139.061000,112.080000
6.635,-0.441000,0.648000,0.425000,42.947000,-34.092000,-139.061000,112.080000
6.663,-0.441000,0.648000,0.425000,42.947000,-34.092000,-139.061000,112.080000
6.685,-0.441000,0.648000,0.425000,42.947000,-34.092000,-139.061000,112.080000
6.713,-0.441000,0.648000,0.425000,42.947000,-34.092000,-139.061000,112.080000
6.735,-0.441000,0.648000,0.425000,42.947000,-34.092000,-139.061000,112.080000
6.763,-0.441000,0.648000,0.425000,42.947000,-34.092000,-139.061000,112.080000
6.785,-0.441000,0.648000,0.425000,42.947000,-34.092000,-139.061000,112.080000
6.808,-0.441000,0.648000,0.425000,42.947000,-34.092000,-139.061000,112.080000
6.835,-0.441000,0.648000,0.425000,42.947000,-34.092000,-139.061000,112.080000
6.858,-0.441000,0.648000,0.425000,42.947000,-34.092000,-139.061000,112.080000
6.885,-0.441000,0.648000,0.425000,42.947000,-34.092000,-139.061000,112.080000
6.908,-0.441000,0.648000,0.425000,42.947000,-34.092000,-139.061000,112.080000
6.935,-0.441000,0.648000,0.425000,42.947000,-34.092000,-139.061000,112.080000
6.958,-0.441000,0.648000,0.425000,42.947000,-34.092000,-139.061000,112.080000
6.985,-0.441000,0.648000,0.425000,42.947000,-34.092000,-139.061000,112.080000
7.008,-0.441000,0.648000,0.425000,42.947000,-34.092000,-139.061000,112.080000
7.035,-0.441000,0.648000,0.425000,42.947000,-34.092000,-139.061000,112.080000
7.058,-0.441000,0.648000,0.425000,42.947000,-34.092000,-139.061000,112.080000
7.080,-0.441000,0.648000,0.425000,42.947000,-34.092000,-139.061000,112.080000
7.108,-0.441000,0.648000,0.425000,42.947000,-34.092000,-139.061000,112.080000
7.130,-0.441000,0.648000,0.425000,42.947000,-34.092000,-139.061000,112.080000
7.158,-0.441000,0.648000,0.425000,42.947000,-34.092000,-139.061000,112.080000
7.180,-0.441000,0.648000,0.425000,42.947000,-34.092000,-139.061000,112.080000
7.208,-0.441000,0.648000,0.425000,42.947000,-34.092000,-139.061000,112.080000
7.236,-0.441000,0.648000,0.425000,42.947000,-34.092000,-139.061000,112.080000
7.258,-0.441000,0.648000,0.425000,42.947000,-34.092000,-139.061000,112.080000
7.280,-0.441000,0.648000,0.425000,42.947000,-34.092000,-139.061000,112.080000
7.308,-0.441000,0.648000,0.425000,42.947000,-34.092000,-139.061000,112.080000
7.330,-0.441000,0.648000,0.425000,42.947000,-34.092000,-139.061000,112.080000
7.352,-0.441000,0.648000,0.425000,42.947000,-34.092000,-139.061000,112.080000
7.380,-0.441000,0.648000,0.425000,42.947000,-34.092000,-139.061000,112.080000
7.402,-0.441000,0.648000,0.425000,42.947000,-34.092000,-139.061000,112.080000
7.430,-0.441000,0.648000,0.425000,42.947000,-34.092000,-139.061000,112.080000
7.452,-0.441000,0.648000,0.425000,42.947000,-34.092000,-139.061000,112.080000
7.480,-0.441000,0.648000,0.425000,42.947000,-34.092000,-139.061000,112.080000
7.502,-0.441000,0.648000,0.425000,42.947000,-34.092000,-139.061000,112.080000
7.530,-0.441000,0.648000,0.425000,42.947000,-34.092000,-139.061000,112.080000
7.552,-0.441000,0.648000,0.425000,42.947000,-34.092000,-139.061000,112.080000
7.579,-0.441000,0.648000,0.425000,42.947000,-34.092000,-139.061000,112.080000
7.602,-0.441000,0.648000,0.425000,42.947000,-34.092000,-139.061000,112.080000
7.625,-0.441000,0.648000,0.425000,42.947000,-34.092000,-139.061000,112.080000
7.652,-0.441000,0.648000,0.425000,42.947000,-34.092000,-139.061000,112.080000
7.674,-0.441000,0.648000,0.425000,42.947000,-34.092000,-139.061000,112.080000
7.702,-0.441000,0.648000,0.425000,42.947000,-34.092000,-139.061000,112.080000
7.725,-0.441000,0.648000,0.425000,42.947000,-34.092000,-139.061000,112.080000
7.752,-0.441000,0.648000,0.425000,42.947000,-34.092000,-139.061000,112.080000
7.775,-0.441000,0.648000,0.425000,42.947000,-34.092000,-139.061000,112.080000
7.802,-0.441000,0.648000,0.425000,42.947000,-34.092000,-139.061000,112.080000
7.825,-0.441000,0.648000,0.425000,42.947000,-34.092000,-139.061000,112.080000
7.852,-0.441000,0.648000,0.425000,42.947000,-34.092000,-139.061000,112.080000
7.874,-0.441000,0.648000,0.425000,42.947000,-34.092000,-139.061000,112.080000
7.896,-0.441000,0.648000,0.425000,42.947000,-34.092000,-139.061000,112.080000
7.925,-0.441000,0.648000,0.425000,42.947000,-34.092000,-139.061000,112.080000
7.946,-0.441000,0.648000,0.425000,42.947000,-34.092000,-139.061000,112.080000
7.974,-0.441000,0.648000,0.425000,42.947000,-34.092000,-139.061000,112.080000
7.996,-0.441000,0.648000,0.425000,42.947000,-34.092000,-139.061000,112.080000
8.025,-0.441000,0.648000,0.425000,42.947000,-34.092000,-139.061000,112.080000
8.046,-0.441000,0.648000,0.425000,42.947000,-34.092000,-139.061000,112.080000
8.074,-0.441000,0.648000,0.425000,42.947000,-34.092000,-139.061000,112.080000
8.096,-0.441000,0.648000,0.425000,42.947000,-34.092000,-139.061000,112.080000
8.124,-0.441000,0.648000,0.425000,42.947000,-34.092000,-139.061000,112.080000
8.146,-0.441000,0.648000,0.425000,42.947000,-34.092000,-139.061000,112.080000
8.170,-0.441000,0.648000,0.425000,42.947000,-34.092000,-139.061000,112.080000
8.196,-0.441000,0.648000,0.425000,42.947000,-34.092000,-139.061000,112.080000
8.219,-0.441000,0.648000,0.425000,42.947000,-34.092000,-139.061000,112.080000
8.246,-0.441000,0.648000,0.425000,42.947000,-34.092000,-139.061000,112.080000
8.268,-0.441000,0.648000,0.425000,42.947000,-34.092000,-139.061000,112.080000
8.296,-0.441000,0.648000,0.425000,42.947000,-34.092000,-139.061000,112.080000
8.320,-0.441000,0.648000,0.425000,42.947000,-34.092000,-139.061000,112.080000
8.346,-0.441000,0.648000,0.425000,42.947000,-34.092000,-139.061000,112.080000
8.368,-0.441000,0.648000,0.425000,42.947000,-34.092000,-139.061000,112.080000
8.391,-0.441000,0.648000,0.425000,42.947000,-34.092000,-139.061000,112.080000
8.419,-0.441000,0.648000,0.425000,42.947000,-34.092000,-139.061000,112.080000
8.441,-0.441000,0.648000,0.425000,42.947000,-34.092000,-139.061000,112.080000
8.469,-0.441000,0.648000,0.425000,42.947000,-34.092000,-139.061000,112.080000
8.491,-0.441000,0.648000,0.425000,42.947000,-34.092000,-139.061000,112.080000
8.519,-0.441000,0.648000,0.425000,42.947000,-34.092000,-139.061000,112.080000
8.540,-0.441000,0.648000,0.425000,42.947000,-34.092000,-139.061000,112.080000
8.569,-0.441000,0.648000,0.425000,42.947000,-34.092000,-139.061000,112.080000
8.591,-0.441000,0.648000,0.425000,42.947000,-34.092000,-139.061000,112.080000
8.619,-0.441000,0.648000,0.425000,42.947000,-34.092000,-139.061000,112.080000
8.640,-0.441000,0.648000,0.425000,42.947000,-34.092000,-139.061000,112.080000
8.664,-0.441000,0.648000,0.425000,42.947000,-34.092000,-139.061000,112.080000
8.691,-0.441000,0.648000,0.425000,42.947000,-34.092000,-139.061000,112.080000
8.714,-0.441000,0.648000,0.425000,42.947000,-34.092000,-139.061000,112.080000
8.740,-0.441000,0.648000,0.425000,42.947000,-34.092000,-139.061000,112.080000
8.763,-0.441000,0.648000,0.425000,42.947000,-34.092000,-139.061000,112.080000
8.790,-0.441000,0.648000,0.425000,42.947000,-34.092000,-139.061000,112.080000
8.813,-0.441000,0.648000,0.425000,42.947000,-34.092000,-139.061000,112.080000
8.841,-0.441000,0.648000,0.425000,42.947000,-34.092000,-139.061000,112.080000
8.863,-0.441000,0.648000,0.425000,42.947000,-34.092000,-139.061000,112.080000
8.890,-0.441000,0.648000,0.425000,42.947000,-34.092000,-139.061000,112.080000
8.913,-0.441000,0.648000,0.425000,42.947000,-34.092000,-139.061000,112.080000
8.935,-0.441000,0.648000,0.425000,42.947000,-34.092000,-139.061000,112.080000
8.963,-0.441000,0.648000,0.425000,42.947000,-34.092000,-139.061000,112.080000
8.985,-0.441000,0.648000,0.425000,42.947000,-34.092000,-139.061000,112.080000
9.013,-0.441000,0.648000,0.425000,42.947000,-34.092000,-139.061000,112.080000
9.035,-0.441000,0.648000,0.425000,42.947000,-34.092000,-139.061000,112.080000
9.063,-0.441000,0.648000,0.425000,42.947000,-34.092000,-139.061000,112.080000
9.085,-0.441000,0.648000,0.425000,42.947000,-34.092000,-139.061000,112.080000
9.113,-0.441000,0.648000,0.425000,42.947000,-34.092000,-139.061000,112.080000
9.135,-0.441000,0.648000,0.425000,42.947000,-34.092000,-139.061000,112.080000
9.163,-0.441000,0.648000,0.425000,42.947000,-34.092000,-139.061000,112.080000
9.185,-0.441000,0.648000,0.425000,42.947000,-34.092000,-139.061000,112.080000
9.208,-0.441000,0.648000,0.425000,42.947000,-34.092000,-139.061000,112.080000
9.235,-0.441000,0.648000,0.425000,42.947000,-34.092000,-139.061000,112.080000
9.257,-0.441000,0.648000,0.425000,42.947000,-34.092000,-139.061000,112.080000
9.285,-0.441000,0.648000,0.425000,42.947000,-34.092000,-139.061000,112.080000
9.308,-0.441000,0.648000,0.425000,42.947000,-34.092000,-139.061000,112.080000
9.335,-0.441000,0.648000,0.425000,42.947000,-34.092000,-139.061000,112.080000
9.358,-0.441000,0.648000,0.425000,42.947000,-34.092000,-139.061000,112.080000
9.385,-0.441000,0.648000,0.425000,42.947000,-34.092000,-139.061000,112.080000
9.408,-0.441000,0.648000,0.425000,42.947000,-34.092000,-139.061000,112.080000
9.435,-0.441000,0.648000,0.425000,42.947000,-34.092000,-139.061000,112.080000
9.458,-0.441000,0.648000,0.425000,42.947000,-34.092000,-139.061000,112.080000
9.479,-0.441000,0.648000,0.425000,42.947000,-34.092000,-139.061000,112.080000
9.508,-0.441000,0.648000,0.425000,42.947000,-34.092000,-139.061000,112.080000
9.530,-0.441000,0.648000,0.425000,42.947000,-34.092000,-139.061000,112.080000
9.558,-0.441000,0.648000,0.425000,42.947000,-34.092000,-139.061000,112.080000
9.580,-0.441000,0.648000,0.425000,42.947000,-34.092000,-139.061000,112.080000
9.608,-0.441000,0.648000,0.425000,42.947000,-34.092000,-139.061000,112.080000
9.629,-0.441000,0.648000,0.425000,42.947000,-34.092000,-139.061000,112.080000
9.658,-0.441000,0.648000,0.425000,42.947000,-34.092000,-139.061000,112.080000
9.679,-0.441000,0.648000,0.425000,42.947000,-34.092000,-139.061000,112.080000
9.708,-0.441000,0.648000,0.425000,42.947000,-34.092000,-139.061000,112.080000
9.729,-0.441000,0.648000,0.425000,42.947000,-34.092000,-139.061000,112.080000
9.751,-0.441000,0.648000,0.425000,42.947000,-34.092000,-139.061000,112.080000
9.779,-0.441000,0.648000,0.425000,42.947000,-34.092000,-139.061000,112.080000
9.801,-0.441000,0.648000,0.425000,42.947000,-34.092000,-139.061000,112.080000
9.829,-0.441000,0.648000,0.425000,42.947000,-34.092000,-139.061000,112.080000
9.851,-0.441000,0.648000,0.425000,42.947000,-34.092000,-139.061000,112.080000
9.879,-0.441000,0.648000,0.425000,42.947000,-34.092000,-139.061000,112.080000
9.901,-0.441000,0.648000,0.425000,42.947000,-34.092000,-139.061000,112.080000
9.929,-0.441000,0.648000,0.425000,42.947000,-34.092000,-139.061000,112.080000
9.951,-0.441000,0.648000,0.425000,42.947000,-34.092000,-139.061000,112.080000
9.974,-0.441000,0.648000,0.425000,42.947000,-34.092000,-139.061000,112.080000
10.001,-0.441000,0.648000,0.425000,42.947000,-34.092000,-139.061000,112.080000
10.024,-0.441000,0.648000,0.425000,42.947000,-34.092000,-139.061000,112.080000
10.052,-0.441000,0.648000,0.425000,42.947000,-34.092000,-139.061000,112.080000
10.074,-0.441000,0.648000,0.425000,42.947000,-34.092000,-139.061000,112.080000
10.102,-0.441000,0.648000,0.425000,42.947000,-34.092000,-139.061000,112.080000
10.124,-0.441000,0.648000,0.425000,42.947000,-34.092000,-139.061000,112.080000
10.151,-0.441000,0.648000,0.425000,42.947000,-34.092000,-139.061000,112.080000
10.174,-0.441000,0.648000,0.425000,42.947000,-34.092000,-139.061000,112.080000
10.202,-0.441000,0.648000,0.425000,42.947000,-34.092000,-139.061000,112.080000
10.224,-0.441000,0.648000,0.425000,42.947000,-34.092000,-139.061000,112.080000
10.246,-0.441000,0.648000,0.425000,42.947000,-34.092000,-139.061000,112.080000
10.274,-0.441000,0.648000,0.425000,42.947000,-34.092000,-139.061000,112.080000
10.296,-0.441000,0.648000,0.425000,42.947000,-34.092000,-139.061000,112.080000
10.324,-0.441000,0.648000,0.425000,42.947000,-34.092000,-139.061000,112.080000
10.346,-0.441000,0.648000,0.425000,42.947000,-34.092000,-139.061000,112.080000
10.374,-0.441000,0.648000,0.425000,42.947000,-34.092000,-139.061000,112.080000
10.396,-0.441000,0.648000,0.425000,42.947000,-34.092000,-139.061000,112.080000
10.423,-0.441000,0.648000,0.425000,42.947000,-34.092000,-139.061000,112.080000
10.446,-0.441000,0.648000,0.425000,42.947000,-34.092000,-139.061000,112.080000
10.474,-0.441000,0.648000,0.425000,42.947000,-34.092000,-139.061000,112.080000
10.496,-0.441000,0.648000,0.425000,42.947000,-34.092000,-139.061000,112.080000
10.518,-0.441000,0.648000,0.425000,42.947000,-34.092000,-139.061000,112.080000
10.546,-0.441000,0.648000,0.425000,42.947000,-34.092000,-139.061000,112.080000
10.568,-0.441000,0.648000,0.425000,42.947000,-34.092000,-139.061000,112.080000
10.596,-0.441000,0.648000,0.425000,42.947000,-34.092000,-139.061000,112.080000
10.619,-0.441000,0.648000,0.425000,42.947000,-34.092000,-139.061000,112.080000
10.646,-0.441000,0.648000,0.425000,42.947000,-34.092000,-139.061000,112.080000
10.669,-0.441000,0.648000,0.425000,42.947000,-34.092000,-139.061000,112.080000
10.696,-0.441000,0.648000,0.425000,42.947000,-34.092000,-139.061000,112.080000
10.719,-0.441000,0.648000,0.425000,42.947000,-34.092000,-139.061000,112.080000
10.746,-0.441000,0.648000,0.425000,42.947000,-34.092000,-139.061000,112.080000
10.768,-0.441000,0.648000,0.425000,42.947000,-34.092000,-139.061000,112.080000
10.790,-0.441000,0.648000,0.425000,42.947000,-34.092000,-139.061000,112.080000
10.818,-0.441000,0.648000,0.425000,42.947000,-34.092000,-139.061000,112.080000
10.840,-0.441000,0.648000,0.425000,42.947000,-34.092000,-139.061000,112.080000
10.868,-0.441000,0.648000,0.425000,42.947000,-34.092000,-139.061000,112.080000
10.890,-0.441000,0.648000,0.425000,42.947000,-34.092000,-139.061000,112.080000
10.918,-0.441000,0.648000,0.425000,42.947000,-34.092000,-139.061000,112.080000
10.940,-0.441000,0.648000,0.425000,42.947000,-34.092000,-139.061000,112.080000
10.968,-0.441000,0.648000,0.425000,42.947000,-34.092000,-139.061000,112.080000
10.990,-0.441000,0.648000,0.425000,42.947000,-34.092000,-139.061000,112.080000
11.018,-0.441000,0.648000,0.425000,42.947000,-34.092000,-139.061000,112.080000
11.040,-0.441000,0.648000,0.425000,42.947000,-34.092000,-139.061000,112.080000
11.063,-0.441000,0.648000,0.425000,42.947000,-34.092000,-139.061000,112.080000
11.090,-0.441000,0.648000,0.425000,42.947000,-34.092000,-139.061000,112.080000
11.113,-0.441000,0.648000,0.425000,42.947000,-34.092000,-139.061000,112.080000
11.140,-0.441000,0.648000,0.425000,42.947000,-34.092000,-139.061000,112.080000
11.163,-0.441000,0.648000,0.425000,42.947000,-34.092000,-139.061000,112.080000
11.190,-0.441000,0.648000,0.425000,42.947000,-34.092000,-139.061000,112.080000
11.213,-0.441000,0.648000,0.425000,42.947000,-34.092000,-139.061000,112.080000
11.240,-0.441000,0.648000,0.425000,42.947000,-34.092000,-139.061000,112.080000
11.263,-0.441000,0.648000,0.425000,42.947000,-34.092000,-139.061000,112.080000
11.290,-0.441000,0.648000,0.425000,42.947000,-34.092000,-139.061000,112.080000
11.313,-0.441000,0.648000,0.425000,42.947000,-34.092000,-139.061000,112.080000
11.335,-0.441000,0.648000,0.425000,42.947000,-34.092000,-139.061000,112.080000
11.363,-0.441000,0.648000,0.425000,42.947000,-34.092000,-139.061000,112.080000
11.385,-0.441000,0.648000,0.425000,42.947000,-34.092000,-139.061000,112.080000
11.413,-0.441000,0.648000,0.425000,42.947000,-34.092000,-139.061000,112.080000
11.435,-0.441000,0.648000,0.425000,42.947000,-34.092000,-139.061000,112.080000
11.463,-0.441000,0.648000,0.425000,42.947000,-34.092000,-139.061000,112.080000
11.485,-0.441000,0.648000,0.425000,42.947000,-34.092000,-139.061000,112.080000
11.513,-0.441000,0.648000,0.425000,42.947000,-34.092000,-139.061000,112.080000
11.535,-0.441000,0.648000,0.425000,42.947000,-34.092000,-139.061000,112.080000
11.558,-0.441000,0.648000,0.425000,42.947000,-34.092000,-139.061000,112.080000
11.585,-0.441000,0.648000,0.425000,42.947000,-34.092000,-139.061000,112.080000
11.608,-0.441000,0.648000,0.425000,42.947000,-34.092000,-139.061000,112.080000
11.634,-0.441000,0.648000,0.425000,42.947000,-34.092000,-139.061000,112.080000
11.658,-0.441000,0.648000,0.425000,42.947000,-34.092000,-139.061000,112.080000
11.685,-0.441000,0.648000,0.425000,42.947000,-34.092000,-139.061000,112.080000
11.708,-0.441000,0.648000,0.425000,42.947000,-34.092000,-139.061000,112.080000
11.735,-0.441000,0.648000,0.425000,42.947000,-34.092000,-139.061000,112.080000
11.758,-0.441000,0.648000,0.425000,42.947000,-34.092000,-139.061000,112.080000
11.785,-0.441000,0.648000,0.425000,42.947000,-34.092000,-139.061000,112.080000
11.808,-0.441000,0.648000,0.425000,42.947000,-34.092000,-139.061000,112.080000
11.830,-0.441000,0.648000,0.425000,42.947000,-34.092000,-139.061000,112.080000
11.858,-0.441000,0.648000,0.425000,42.947000,-34.092000,-139.061000,112.080000
11.879,-0.441000,0.648000,0.425000,42.947000,-34.092000,-139.061000,112.080000
11.908,-0.441000,0.648000,0.425000,42.947000,-34.092000,-139.061000,112.080000
11.929,-0.441000,0.648000,0.425000,42.947000,-34.092000,-139.061000,112.080000
11.958,-0.441000,0.648000,0.425000,42.947000,-34.092000,-139.061000,112.080000
11.980,-0.441000,0.648000,0.425000,42.947000,-34.092000,-139.061000,112.080000
12.008,-0.441000,0.648000,0.425000,42.947000,-34.092000,-139.061000,112.080000
12.029,-0.441000,0.648000,0.425000,42.947000,-34.092000,-139.061000,112.080000
12.058,-0.441000,0.648000,0.425000,42.947000,-34.092000,-139.061000,112.080000
12.079,-0.441000,0.648000,0.425000,42.947000,-34.092000,-139.061000,112.080000
12.101,-0.441000,0.648000,0.425000,42.947000,-34.092000,-139.061000,112.080000
12.130,-0.441000,0.648000,0.425000,42.947000,-34.092000,-139.061000,112.080000
12.151,-0.441000,0.648000,0.425000,42.947000,-34.092000,-139.061000,112.080000
12.179,-0.441000,0.648000,0.425000,42.947000,-34.092000,-139.061000,112.080000
12.201,-0.441000,0.648000,0.425000,42.947000,-34.092000,-139.061000,112.080000
12.229,-0.441000,0.648000,0.425000,42.947000,-34.092000,-139.061000,112.080000
12.251,-0.441000,0.648000,0.425000,42.947000,-34.092000,-139.061000,112.080000
12.279,-0.441000,0.648000,0.425000,42.947000,-34.092000,-139.061000,112.080000
12.307,-0.441000,0.648000,0.425000,42.947000,-34.092000,-139.061000,112.080000
12.329,-0.441000,0.648000,0.425000,42.947000,-34.092000,-139.061000,112.080000
12.351,-0.441000,0.648000,0.425000,42.947000,-34.092000,-139.061000,112.080000
12.373,-0.441000,0.648000,0.425000,42.947000,-34.092000,-139.061000,112.080000
12.401,-0.441000,0.648000,0.425000,42.947000,-34.092000,-139.061000,112.080000
12.424,-0.441000,0.648000,0.425000,42.947000,-34.092000,-139.061000,112.080000
12.451,-0.441000,0.648000,0.425000,42.947000,-34.092000,-139.061000,112.080000
12.474,-0.441000,0.648000,0.425000,42.947000,-34.092000,-139.061000,112.080000
12.484,0.000000,0.000000,0.000000,0.000000,0.000000,0.000000,36.530000
12.490,0.000000,0.000000,0.000000,0.000000,0.000000,0.000000,36.530000
12.501,0.000000,0.000000,0.000000,0.000000,0.000000,0.000000,36.530000
12.508,0.000000,0.000000,0.000000,0.000000,0.000000,0.000000,36.530000
12.518,0.000000,0.000000,0.000000,0.000000,0.000000,0.000000,36.530000
12.524,0.000000,0.000000,0.000000,0.000000,0.000000,0.000000,36.530000
12.534,0.000000,0.000000,0.000000,0.000000,0.000000,0.000000,36.530000
12.540,0.000000,0.000000,0.000000,0.000000,0.000000,0.000000,36.530000
12.551,0.000000,0.000000,0.000000,0.000000,0.000000,0.000000,36.530000
12.558,0.000000,0.000000,0.000000,0.000000,0.000000,0.000000,36.530000
12.568,0.000000,0.000000,0.000000,0.000000,0.000000,0.000000,36.530000
12.574,0.000000,0.000000,0.000000,0.000000,0.000000,0.000000,36.530000
12.584,0.000000,0.000000,0.000000,0.000000,0.000000,0.000000,36.530000
12.590,0.000000,0.000000,0.000000,0.000000,0.000000,0.000000,36.530000
12.601,0.000000,0.000000,0.000000,0.000000,0.000000,0.000000,36.530000
12.613,0.000000,0.000000,0.000000,0.000000,0.000000,0.000000,36.530000
12.618,0.000000,0.000000,0.000000,0.000000,0.000000,0.000000,36.530000
12.629,0.000000,0.000000,0.000000,0.000000,0.000000,0.000000,36.530000
12.634,0.000000,0.000000,0.000000,0.000000,0.000000,0.000000,36.530000
12.645,0.000000,0.000000,0.000000,0.000000,0.000000,0.000000,36.530000
12.651,0.000000,0.000000,0.000000,0.000000,0.000000,0.000000,36.530000
12.663,0.000000,0.000000,0.000000,0.000000,0.000000,0.000000,36.530000
12.668,0.000000,0.000000,0.000000,0.000000,0.000000,0.000000,36.530000
12.679,0.000000,0.000000,0.000000,0.000000,0.000000,0.000000,36.530000
12.684,0.000000,0.000000,0.000000,0.000000,0.000000,0.000000,36.530000
12.696,0.000000,0.000000,0.000000,0.000000,0.000000,0.000000,36.530000
12.701,0.000000,0.000000,0.000000,0.000000,0.000000,0.000000,36.530000
12.713,0.000000,0.000000,0.000000,0.000000,0.000000,0.000000,36.530000
12.719,0.000000,0.000000,0.000000,0.000000,0.000000,0.000000,36.530000
12.729,0.000000,0.000000,0.000000,0.000000,0.000000,0.000000,36.530000
12.734,0.000000,0.000000,0.000000,0.000000,0.000000,0.000000,36.530000
12.746,0.000000,0.000000,0.000000,0.000000,0.000000,0.000000,36.530000
12.751,0.000000,0.000000,0.000000,0.000000,0.000000,0.000000,36.530000
12.763,0.000000,0.000000,0.000000,0.000000,0.000000,0.000000,36.530000
12.768,0.000000,0.000000,0.000000,0.000000,0.000000,0.000000,36.530000
12.779,0.000000,0.000000,0.000000,0.000000,0.000000,0.000000,36.530000
12.784,0.000000,0.000000,0.000000,0.000000,0.000000,0.000000,36.530000
12.796,0.000000,0.000000,0.000000,0.000000,0.000000,0.000000,36.530000
12.801,0.000000,0.000000,0.000000,0.000000,0.000000,0.000000,36.530000
12.813,0.000000,0.000000,0.000000,0.000000,0.000000,0.000000,36.530000
12.818,0.000000,0.000000,0.000000,0.000000,0.000000,0.000000,36.530000
12.829,0.000000,0.000000,0.000000,0.000000,0.000000,0.000000,36.530000
12.834,0.000000,0.000000,0.000000,0.000000,0.000000,0.000000,36.530000
12.845,0.000000,0.000000,0.000000,0.000000,0.000000,0.000000,36.530000
12.851,0.000000,0.000000,0.000000,0.000000,0.000000,0.000000,36.530000
12.863,0.000000,0.000000,0.000000,0.000000,0.000000,0.000000,36.530000
12.869,0.000000,0.000000,0.000000,0.000000,0.000000,0.000000,36.530000
12.880,0.000000,0.000000,0.000000,0.000000,0.000000,0.000000,36.530000
12.890,0.000000,0.000000,0.000000,0.000000,0.000000,0.000000,36.530000
12.896,0.000000,0.000000,0.000000,0.000000,0.000000,0.000000,36.530000
12.908,0.000000,0.000000,0.000000,0.000000,0.000000,0.000000,36.530000
12.913,0.000000,0.000000,0.000000,0.000000,0.000000,0.000000,36.530000
12.924,0.000000,0.000000,0.000000,0.000000,0.000000,0.000000,36.530000
12.929,0.000000,0.000000,0.000000,0.000000,0.000000,0.000000,36.530000
12.940,0.000000,0.000000,0.000000,0.000000,0.000000,0.000000,36.530000
12.946,0.000000,0.000000,0.000000,0.000000,0.000000,0.000000,36.530000
12.958,0.000000,0.000000,0.000000,0.000000,0.000000,0.000000,36.530000
12.963,0.000000,0.000000,0.000000,0.000000,0.000000,0.000000,36.530000
12.974,0.000000,0.000000,0.000000,0.000000,0.000000,0.000000,36.530000
12.979,0.000000,0.000000,0.000000,0.000000,0.000000,0.000000,36.530000
12.990,0.000000,0.000000,0.000000,0.000000,0.000000,0.000000,36.530000
12.996,0.000000,0.000000,0.000000,0.000000,0.000000,0.000000,36.530000
13.008,0.000000,0.000000,0.000000,0.000000,0.000000,0.000000,36.530000
13.014,0.000000,0.000000,0.000000,0.000000,0.000000,0.000000,36.530000
13.024,0.000000,0.000000,0.000000,0.000000,0.000000,0.000000,36.530000
13.030,0.000000,0.000000,0.000000,0.000000,0.000000,0.000000,36.530000
13.040,0.000000,0.000000,0.000000,0.000000,0.000000,0.000000,36.530000
13.046,0.000000,0.000000,0.000000,0.000000,0.000000,0.000000,36.530000
13.058,0.000000,0.000000,0.000000,0.000000,0.000000,0.000000,36.530000
13.064,0.000000,0.000000,0.000000,0.000000,0.000000,0.000000,36.530000
13.074,0.000000,0.000000,0.000000,0.000000,0.000000,0.000000,36.530000
13.080,0.000000,0.000000,0.000000,0.000000,0.000000,0.000000,36.530000
13.090,0.000000,0.000000,0.000000,0.000000,0.000000,0.000000,36.530000
13.096,0.000000,0.000000,0.000000,0.000000,0.000000,0.000000,36.530000
13.108,0.000000,0.000000,0.000000,0.000000,0.000000,0.000000,36.530000
13.114,0.000000,0.000000,0.000000,0.000000,0.000000,0.000000,36.530000
13.124,0.000000,0.000000,0.000000,0.000000,0.000000,0.000000,36.530000
13.130,0.000000,0.000000,0.000000,0.000000,0.000000,0.000000,36.530000
13.140,0.000000,0.000000,0.000000,0.000000,0.000000,0.000000,36.530000
13.151,0.000000,0.000000,0.000000,0.000000,0.000000,0.000000,36.530000
13.158,0.000000,0.000000,0.000000,0.000000,0.000000,0.000000,36.530000
13.168,0.000000,0.000000,0.000000,0.000000,0.000000,0.000000,36.530000
13.174,0.000000,0.000000,0.000000,0.000000,0.000000,0.000000,36.530000
13.184,0.000000,0.000000,0.000000,0.000000,0.000000,0.000000,36.530000
13.190,0.000000,0.000000,0.000000,0.000000,0.000000,0.000000,36.530000
13.201,0.000000,0.000000,0.000000,0.000000,0.000000,0.000000,36.530000
13.208,0.000000,0.000000,0.000000,0.000000,0.000000,0.000000,36.530000
13.218,0.000000,0.000000,0.000000,0.000000,0.000000,0.000000,36.530000
13.224,0.000000,0.000000,0.000000,0.000000,0.000000,0.000000,36.530000
13.234,0.000000,0.000000,0.000000,0.000000,0.000000,0.000000,36.530000
13.240,0.000000,0.000000,0.000000,0.000000,0.000000,0.000000,36.530000
13.251,0.000000,0.000000,0.000000,0.000000,0.000000,0.000000,36.530000
13.258,0.000000,0.000000,0.000000,0.000000,0.000000,0.000000,36.530000
13.268,0.000000,0.000000,0.000000,0.000000,0.000000,0.000000,36.530000
13.274,0.000000,0.000000,0.000000,0.000000,0.000000,0.000000,36.530000
13.284,0.000000,0.000000,0.000000,0.000000,0.000000,0.000000,36.530000
13.290,0.000000,0.000000,0.000000,0.000000,0.000000,0.000000,36.530000
13.301,0.000000,0.000000,0.000000,0.000000,0.000000,0.000000,36.530000
13.308,0.000000,0.000000,0.000000,0.000000,0.000000,0.000000,36.530000
13.318,0.000000,0.000000,0.000000,0.000000,0.000000,0.000000,36.530000
13.324,0.000000,0.000000,0.000000,0.000000,0.000000,0.000000,36.530000
13.334,0.000000,0.000000,0.000000,0.000000,0.000000,0.000000,36.530000
13.340,0.000000,0.000000,0.000000,0.000000,0.000000,0.000000,36.530000
13.351,0.000000,0.000000,0.000000,0.000000,0.000000,0.000000,36.530000
13.359,0.000000,0.000000,0.000000,0.000000,0.000000,0.000000,36.530000
13.369,0.000000,0.000000,0.000000,0.000000,0.000000,0.000000,36.530000
13.374,0.000000,0.000000,0.000000,0.000000,0.000000,0.000000,36.530000
13.384,0.000000,0.000000,0.000000,0.000000,0.000000,0.000000,36.530000
13.390,0.000000,0.000000,0.000000,0.000000,0.000000,0.000000,36.530000
13.401,0.000000,0.000000,0.000000,0.000000,0.000000,0.000000,36.530000
13.408,0.000000,0.000000,0.000000,0.000000,0.000000,0.000000,36.530000
13.418,0.000000,0.000000,0.000000,0.000000,0.000000,0.000000,36.530000
13.429,0.000000,0.000000,0.000000,0.000000,0.000000,0.000000,36.530000
13.434,0.000000,0.000000,0.000000,0.000000,0.000000,0.000000,36.530000
13.445,0.000000,0.000000,0.000000,0.000000,0.000000,0.000000,36.530000
13.451,0.000000,0.000000,0.000000,0.000000,0.000000,0.000000,36.530000
13.463,0.000000,0.000000,0.000000,0.000000,0.000000,0.000000,36.530000
13.469,0.000000,0.000000,0.000000,0.000000,0.000000,0.000000,36.530000
13.479,0.000000,0.000000,0.000000,0.000000,0.000000,0.000000,36.530000
13.484,0.000000,0.000000,0.000000,0.000000,0.000000,0.000000,36.530000
13.496,0.000000,0.000000,0.000000,0.000000,0.000000,0.000000,36.530000
13.501,0.000000,0.000000,0.000000,0.000000,0.000000,0.000000,36.530000
13.513,0.000000,0.000000,0.000000,0.000000,0.000000,0.000000,36.530000
13.518,0.000000,0.000000,0.000000,0.000000,0.000000,0.000000,36.530000
13.529,0.000000,0.000000,0.000000,0.000000,0.000000,0.000000,36.530000
13.534,0.000000,0.000000,0.000000,0.000000,0.000000,0.000000,36.530000
13.546,0.000000,0.000000,0.000000,0.000000,0.000000,0.000000,36.530000
13.551,0.000000,0.000000,0.000000,0.000000,0.000000,0.000000,36.530000
13.563,0.000000,0.000000,0.000000,0.000000,0.000000,0.000000,36.530000
13.568,0.000000,0.000000,0.000000,0.000000,0.000000,0.000000,36.530000
13.579,0.000000,0.000000,0.000000,0.000000,0.000000,0.000000,36.530000
13.584,0.000000,0.000000,0.000000,0.000000,0.000000,0.000000,36.530000
13.596,0.000000,0.000000,0.000000,0.000000,0.000000,0.000000,36.530000
13.601,0.000000,0.000000,0.000000,0.000000,0.000000,0.000000,36.530000
13.613,0.000000,0.000000,0.000000,0.000000,0.000000,0.000000,36.530000
13.619,0.000000,0.000000,0.000000,0.000000,0.000000,0.000000,36.530000
13.629,0.000000,0.000000,0.000000,0.000000,0.000000,0.000000,36.530000
13.634,0.000000,0.000000,0.000000,0.000000,0.000000,0.000000,36.530000
13.645,0.000000,0.000000,0.000000,0.000000,0.000000,0.000000,36.530000
13.651,0.000000,0.000000,0.000000,0.000000,0.000000,0.000000,36.530000
13.663,0.000000,0.000000,0.000000,0.000000,0.000000,0.000000,36.530000
13.669,0.000000,0.000000,0.000000,0.000000,0.000000,0.000000,36.530000
13.679,0.000000,0.000000,0.000000,0.000000,0.000000,0.000000,36.530000
13.690,0.000000,0.000000,0.000000,0.000000,0.000000,0.000000,36.530000
13.696,0.000000,0.000000,0.000000,0.000000,0.000000,0.000000,36.530000
13.708,0.000000,0.000000,0.000000,0.000000,0.000000,0.000000,36.530000
13.714,0.000000,0.000000,0.000000,0.000000,0.000000,0.000000,36.530000
13.724,0.000000,0.000000,0.000000,0.000000,0.000000,0.000000,36.530000
13.729,0.000000,0.000000,0.000000,0.000000,0.000000,0.000000,36.530000
13.740,0.000000,0.000000,0.000000,0.000000,0.000000,0.000000,36.530000
13.745,0.000000,0.000000,0.000000,0.000000,0.000000,0.000000,36.530000
13.758,0.000000,0.000000,0.000000,0.000000,0.000000,0.000000,36.530000
13.763,0.000000,0.000000,0.000000,0.000000,0.000000,0.000000,36.530000
13.774,0.000000,0.000000,0.000000,0.000000,0.000000,0.000000,36.530000
13.779,0.000000,0.000000,0.000000,0.000000,0.000000,0.000000,36.530000
13.790,0.000000,0.000000,0.000000,0.000000,0.000000,0.000000,36.530000
13.795,0.000000,0.000000,0.000000,0.000000,0.000000,0.000000,36.530000
13.808,0.000000,0.000000,0.000000,0.000000,0.000000,0.000000,36.530000
13.814,0.000000,0.000000,0.000000,0.000000,0.000000,0.000000,36.530000
13.824,0.000000,0.000000,0.000000,0.000000,0.000000,0.000000,36.530000
13.829,0.000000,0.000000,0.000000,0.000000,0.000000,0.000000,36.530000
13.840,0.000000,0.000000,0.000000,0.000000,0.000000,0.000000,36.530000
13.845,0.000000,0.000000,0.000000,0.000000,0.000000,0.000000,36.530000
13.857,0.000000,0.000000,0.000000,0.000000,0.000000,0.000000,36.530000
13.862,0.000000,0.000000,0.000000,0.000000,0.000000,0.000000,36.530000
13.875,0.000000,0.000000,0.000000,0.000000,0.000000,0.000000,36.530000
13.879,0.000000,0.000000,0.000000,0.000000,0.000000,0.000000,36.530000
13.890,0.000000,0.000000,0.000000,0.000000,0.000000,0.000000,36.530000
13.896,0.000000,0.000000,0.000000,0.000000,0.000000,0.000000,36.530000
13.908,0.000000,0.000000,0.000000,0.000000,0.000000,0.000000,36.530000
13.913,0.000000,0.000000,0.000000,0.000000,0.000000,0.000000,36.530000
13.923,0.000000,0.000000,0.000000,0.000000,0.000000,0.000000,36.530000
13.930,0.000000,0.000000,0.000000,0.000000,0.000000,0.000000,36.530000
13.940,0.000000,0.000000,0.000000,0.000000,0.000000,0.000000,36.530000
13.946,0.000000,0.000000,0.000000,0.000000,0.000000,0.000000,36.530000
13.958,0.000000,0.000000,0.000000,0.000000,0.000000,0.000000,36.530000
13.968,0.000000,0.000000,0.000000,0.000000,0.000000,0.000000,36.530000
13.973,0.000000,0.000000,0.000000,0.000000,0.000000,0.000000,36.530000
13.984,0.000000,0.000000,0.000000,0.000000,0.000000,0.000000,36.530000
13.990,0.000000,0.000000,0.000000,0.000000,0.000000,0.000000,36.530000
14.001,0.000000,0.000000,0.000000,0.000000,0.000000,0.000000,36.530000
14.008,0.000000,0.000000,0.000000,0.000000,0.000000,0.000000,36.530000
14.019,0.000000,0.000000,0.000000,0.000000,0.000000,0.000000,36.530000
14.024,0.000000,0.000000,0.000000,0.000000,0.000000,0.000000,36.530000
14.034,0.000000,0.000000,0.000000,0.000000,0.000000,0.000000,36.530000
14.040,0.000000,0.000000,0.000000,0.000000,0.000000,0.000000,36.530000
14.051,0.000000,0.000000,0.000000,0.000000,0.000000,0.000000,36.530000
14.058,0.000000,0.000000,0.000000,0.000000,0.000000,0.000000,36.530000
14.069,0.000000,0.000000,0.000000,0.000000,0.000000,0.000000,36.530000
14.074,0.000000,0.000000,0.000000,0.000000,0.000000,0.000000,36.530000
14.084,0.000000,0.000000,0.000000,0.000000,0.000000,0.000000,36.530000
14.090,0.000000,0.000000,0.000000,0.000000,0.000000,0.000000,36.530000
14.101,0.000000,0.000000,0.000000,0.000000,0.000000,0.000000,36.530000
14.108,0.000000,0.000000,0.000000,0.000000,0.000000,0.000000,36.530000
14.118,0.000000,0.000000,0.000000,0.000000,0.000000,0.000000,36.530000
14.124,0.000000,0.000000,0.000000,0.000000,0.000000,0.000000,36.530000
14.134,0.000000,0.000000,0.000000,0.000000,0.000000,0.000000,36.530000
14.140,0.000000,0.000000,0.000000,0.000000,0.000000,0.000000,36.530000
14.151,0.000000,0.000000,0.000000,0.000000,0.000000,0.000000,36.530000
14.158,0.000000,0.000000,0.000000,0.000000,0.000000,0.000000,36.530000
14.168,0.000000,0.000000,0.000000,0.000000,0.000000,0.000000,36.530000
14.173,0.000000,0.000000,0.000000,0.000000,0.000000,0.000000,36.530000
14.184,0.000000,0.000000,0.000000,0.000000,0.000000,0.000000,36.530000
14.190,0.000000,0.000000,0.000000,0.000000,0.000000,0.000000,36.530000
14.201,0.000000,0.000000,0.000000,0.000000,0.000000,0.000000,36.530000
14.208,0.000000,0.000000,0.000000,0.000000,0.000000,0.000000,36.530000
14.219,0.000000,0.000000,0.000000,0.000000,0.000000,0.000000,36.530000
14.229,0.000000,0.000000,0.000000,0.000000,0.000000,0.000000,36.530000
14.234,0.000000,0.000000,0.000000,0.000000,0.000000,0.000000,36.530000
14.245,0.000000,0.000000,0.000000,0.000000,0.000000,0.000000,36.530000
14.251,0.000000,0.000000,0.000000,0.000000,0.000000,0.000000,36.530000
14.263,0.000000,0.000000,0.000000,0.000000,0.000000,0.000000,36.530000
14.268,0.000000,0.000000,0.000000,0.000000,0.000000,0.000000,36.530000
14.279,0.000000,0.000000,0.000000,0.000000,0.000000,0.000000,36.530000
14.284,0.000000,0.000000,0.000000,0.000000,0.000000,0.000000,36.530000
14.295,0.000000,0.000000,0.000000,0.000000,0.000000,0.000000,36.530000
14.301,0.000000,0.000000,0.000000,0.000000,0.000000,0.000000,36.530000
14.313,0.000000,0.000000,0.000000,0.000000,0.000000,0.000000,36.530000
14.319,0.000000,0.000000,0.000000,0.000000,0.000000,0.000000,36.530000
14.329,0.000000,0.000000,0.000000,0.000000,0.000000,0.000000,36.530000
14.334,0.000000,0.000000,0.000000,0.000000,0.000000,0.000000,36.530000
14.345,0.000000,0.000000,0.000000,0.000000,0.000000,0.000000,36.530000
14.351,0.000000,0.000000,0.000000,0.000000,0.000000,0.000000,36.530000
14.363,0.000000,0.000000,0.000000,0.000000,0.000000,0.000000,36.530000
14.369,0.000000,0.000000,0.000000,0.000000,0.000000,0.000000,36.530000
14.386,0.000000,0.000000,0.000000,0.000000,0.000000,0.000000,36.530000
14.388,0.000000,0.000000,0.000000,0.000000,0.000000,0.000000,36.530000
14.395,0.000000,0.000000,0.000000,0.000000,0.000000,0.000000,36.530000
14.401,0.000000,0.000000,0.000000,0.000000,0.000000,0.000000,36.530000
14.413,0.000000,0.000000,0.000000,0.000000,0.000000,0.000000,36.530000
14.418,0.000000,0.000000,0.000000,0.000000,0.000000,0.000000,36.530000
14.430,0.000000,0.000000,0.000000,0.000000,0.000000,0.000000,36.530000
14.434,0.000000,0.000000,0.000000,0.000000,0.000000,0.000000,36.530000
14.445,0.000000,0.000000,0.000000,0.000000,0.000000,0.000000,36.530000
14.451,0.000000,0.000000,0.000000,0.000000,0.000000,0.000000,36.530000
14.463,0.000000,0.000000,0.000000,0.000000,0.000000,0.000000,36.530000
14.468,0.000000,0.000000,0.000000,0.000000,0.000000,0.000000,36.530000
14.479,0.000000,0.000000,0.000000,0.000000,0.000000,0.000000,36.530000
14.484,0.000000,0.000000,0.000000,0.000000,0.000000,0.000000,36.530000
14.496,0.000000,0.000000,0.000000,0.000000,0.000000,0.000000,36.530000
14.508,0.000000,0.000000,0.000000,0.000000,0.000000,0.000000,36.530000
14.513,0.000000,0.000000,0.000000,0.000000,0.000000,0.000000,36.530000
14.524,0.000000,0.000000,0.000000,0.000000,0.000000,0.000000,36.530000
14.529,0.000000,0.000000,0.000000,0.000000,0.000000,0.000000,36.530000
14.540,0.000000,0.000000,0.000000,0.000000,0.000000,0.000000,36.530000
14.545,0.000000,0.000000,0.000000,0.000000,0.000000,0.000000,36.530000
14.558,0.000000,0.000000,0.000000,0.000000,0.000000,0.000000,36.530000
14.563,0.000000,0.000000,0.000000,0.000000,0.000000,0.000000,36.530000
14.573,0.000000,0.000000,0.000000,0.000000,0.000000,0.000000,36.530000
14.579,0.000000,0.000000,0.000000,0.000000,0.000000,0.000000,36.530000
14.590,0.000000,0.000000,0.000000,0.000000,0.000000,0.000000,36.530000
14.595,0.000000,0.000000,0.000000,0.000000,0.000000,0.000000,36.530000
14.608,0.000000,0.000000,0.000000,0.000000,0.000000,0.000000,36.530000
14.614,0.000000,0.000000,0.000000,0.000000,0.000000,0.000000,36.530000
14.624,0.000000,0.000000,0.000000,0.000000,0.000000,0.000000,36.530000
14.630,0.000000,0.000000,0.000000,0.000000,0.000000,0.000000,36.530000
14.640,0.000000,0.000000,0.000000,0.000000,0.000000,0.000000,36.530000
14.645,0.000000,0.000000,0.000000,0.000000,0.000000,0.000000,36.530000
14.658,0.000000,0.000000,0.000000,0.000000,0.000000,0.000000,36.530000
14.663,0.000000,0.000000,0.000000,0.000000,0.000000,0.000000,36.530000
14.673,0.000000,0.000000,0.000000,0.000000,0.000000,0.000000,36.530000
14.680,0.000000,0.000000,0.000000,0.000000,0.000000,0.000000,36.530000
14.690,0.000000,0.000000,0.000000,0.000000,0.000000,0.000000,36.530000
14.695,0.000000,0.000000,0.000000,0.000000,0.000000,0.000000,36.530000
14.708,0.000000,0.000000,0.000000,0.000000,0.000000,0.000000,36.530000
14.713,0.000000,0.000000,0.000000,0.000000,0.000000,0.000000,36.530000
14.724,0.000000,0.000000,0.000000,0.000000,0.000000,0.000000,36.530000
14.730,0.000000,0.000000,0.000000,0.000000,0.000000,0.000000,36.530000
14.740,0.000000,0.000000,0.000000,0.000000,0.000000,0.000000,36.530000
14.745,0.000000,0.000000,0.000000,0.000000,0.000000,0.000000,36.530000
14.758,0.000000,0.000000,0.000000,0.000000,0.000000,0.000000,36.530000
14.768,0.000000,0.000000,0.000000,0.000000,0.000000,0.000000,36.530000
14.774,0.000000,0.000000,0.000000,0.000000,0.000000,0.000000,36.530000
14.784,0.000000,0.000000,0.000000,0.000000,0.000000,0.000000,36.530000
14.790,0.000000,0.000000,0.000000,0.000000,0.000000,0.000000,36.530000
14.801,0.000000,0.000000,0.000000,0.000000,0.000000,0.000000,36.530000
14.808,0.000000,0.000000,0.000000,0.000000,0.000000,0.000000,36.530000
14.818,0.000000,0.000000,0.000000,0.000000,0.000000,0.000000,36.530000
14.824,0.000000,0.000000,0.000000,0.000000,0.000000,0.000000,36.530000
14.834,0.000000,0.000000,0.000000,0.000000,0.000000,0.000000,36.530000
14.840,0.000000,0.000000,0.000000,0.000000,0.000000,0.000000,36.530000
14.851,0.000000,0.000000,0.000000,0.000000,0.000000,0.000000,36.530000
14.858,0.000000,0.000000,0.000000,0.000000,0.000000,0.000000,36.530000
14.868,0.000000,0.000000,0.000000,0.000000,0.000000,0.000000,36.530000
14.874,0.000000,0.000000,0.000000,0.000000,0.000000,0.000000,36.530000
14.884,0.000000,0.000000,0.000000,0.000000,0.000000,0.000000,36.530000
14.890,0.000000,0.000000,0.000000,0.000000,0.000000,0.000000,36.530000
14.901,0.000000,0.000000,0.000000,0.000000,0.000000,0.000000,36.530000
14.908,0.000000,0.000000,0.000000,0.000000,0.000000,0.000000,36.530000
14.918,0.000000,0.000000,0.000000,0.000000,0.000000,0.000000,36.530000
14.923,0.000000,0.000000,0.000000,0.000000,0.000000,0.000000,36.530000
14.934,0.000000,0.000000,0.000000,0.000000,0.000000,0.000000,36.530000
14.940,0.000000,0.000000,0.000000,0.000000,0.000000,0.000000,36.530000
14.951,0.000000,0.000000,0.000000,0.000000,0.000000,0.000000,36.530000
14.958,0.000000,0.000000,0.000000,0.000000,0.000000,0.000000,36.530000
14.968,0.000000,0.000000,0.000000,0.000000,0.000000,0.000000,36.530000
14.974,0.000000,0.000000,0.000000,0.000000,0.000000,0.000000,36.530000
14.984,0.000000,0.000000,0.000000,0.000000,0.000000,0.000000,36.530000
14.990,0.000000,0.000000,0.000000,0.000000,0.000000,0.000000,36.530000
15.001,0.000000,0.000000,0.000000,0.000000,0.000000,0.000000,36.530000
15.009,0.000000,0.000000,0.000000,0.000000,0.000000,0.000000,36.530000
15.018,0.000000,0.000000,0.000000,0.000000,0.000000,0.000000,36.530000
15.024,0.000000,0.000000,0.000000,0.000000,0.000000,0.000000,36.530000
15.034,0.000000,0.000000,0.000000,0.000000,0.000000,0.000000,36.530000
15.045,0.000000,0.000000,0.000000,0.000000,0.000000,0.000000,36.530000
15.051,0.000000,0.000000,0.000000,0.000000,0.000000,0.000000,36.530000
15.062,0.000000,0.000000,0.000000,0.000000,0.000000,0.000000,36.530000
15.068,0.000000,0.000000,0.000000,0.000000,0.000000,0.000000,36.530000
15.079,0.000000,0.000000,0.000000,0.000000,0.000000,0.000000,36.530000
15.084,0.000000,0.000000,0.000000,0.000000,0.000000,0.000000,36.530000
15.095,0.000000,0.000000,0.000000,0.000000,0.000000,0.000000,36.530000
15.101,0.000000,0.000000,0.000000,0.000000,0.000000,0.000000,36.530000
15.113,0.000000,0.000000,0.000000,0.000000,0.000000,0.000000,36.530000
15.118,0.000000,0.000000,0.000000,0.000000,0.000000,0.000000,36.530000
15.129,0.000000,0.000000,0.000000,0.000000,0.000000,0.000000,36.530000
15.134,0.000000,0.000000,0.000000,0.000000,0.000000,0.000000,36.530000
15.145,0.000000,0.000000,0.000000,0.000000,0.000000,0.000000,36.530000
15.151,0.000000,0.000000,0.000000,0.000000,0.000000,0.000000,36.530000
15.162,0.000000,0.000000,0.000000,0.000000,0.000000,0.000000,36.530000
15.168,0.000000,0.000000,0.000000,0.000000,0.000000,0.000000,36.530000
15.179,0.000000,0.000000,0.000000,0.000000,0.000000,0.000000,36.530000
15.185,0.000000,0.000000,0.000000,0.000000,0.000000,0.000000,36.530000
15.195,0.000000,0.000000,0.000000,0.000000,0.000000,0.000000,36.530000
15.201,0.000000,0.000000,0.000000,0.000000,0.000000,0.000000,36.530000
15.212,0.000000,0.000000,0.000000,0.000000,0.000000,0.000000,36.530000
15.218,0.000000,0.000000,0.000000,0.000000,0.000000,0.000000,36.530000
15.229,0.000000,0.000000,0.000000,0.000000,0.000000,0.000000,36.530000
15.235,0.000000,0.000000,0.000000,0.000000,0.000000,0.000000,36.530000
15.245,0.000000,0.000000,0.000000,0.000000,0.000000,0.000000,36.530000
15.251,0.000000,0.000000,0.000000,0.000000,0.000000,0.000000,36.530000
15.264,0.000000,0.000000,0.000000,0.000000,0.000000,0.000000,36.530000
15.269,0.000000,0.000000,0.000000,0.000000,0.000000,0.000000,36.530000
15.280,0.000000,0.000000,0.000000,0.000000,0.000000,0.000000,36.530000
15.285,0.000000,0.000000,0.000000,0.000000,0.000000,0.000000,36.530000
15.295,0.000000,0.000000,0.000000,0.000000,0.000000,0.000000,36.530000
15.308,0.000000,0.000000,0.000000,0.000000,0.000000,0.000000,36.530000
15.313,0.000000,0.000000,0.000000,0.000000,0.000000,0.000000,36.530000
15.323,0.000000,0.000000,0.000000,0.000000,0.000000,0.000000,36.530000
15.330,0.000000,0.000000,0.000000,0.000000,0.000000,0.000000,36.530000
15.340,0.000000,0.000000,0.000000,0.000000,0.000000,0.000000,36.530000
15.345,0.000000,0.000000,0.000000,0.000000,0.000000,0.000000,36.530000
15.357,0.000000,0.000000,0.000000,0.000000,0.000000,0.000000,36.530000
15.364,0.000000,0.000000,0.000000,0.000000,0.000000,0.000000,36.530000
15.374,0.000000,0.000000,0.000000,0.000000,0.000000,0.000000,36.530000
15.379,0.000000,0.000000,0.000000,0.000000,0.000000,0.000000,36.530000
15.390,0.000000,0.000000,0.000000,0.000000,0.000000,0.000000,36.530000
15.395,0.000000,0.000000,0.000000,0.000000,0.000000,0.000000,36.530000
15.408,0.000000,0.000000,0.000000,0.000000,0.000000,0.000000,36.530000
15.413,0.000000,0.000000,0.000000,0.000000,0.000000,0.000000,36.530000
15.424,0.000000,0.000000,0.000000,0.000000,0.000000,0.000000,36.530000
15.429,0.000000,0.000000,0.000000,0.000000,0.000000,0.000000,36.530000
15.440,0.000000,0.000000,0.000000,0.000000,0.000000,0.000000,36.530000
15.445,0.000000,0.000000,0.000000,0.000000,0.000000,0.000000,36.530000
15.458,0.000000,0.000000,0.000000,0.000000,0.000000,0.000000,36.530000
15.463,0.000000,0.000000,0.000000,0.000000,0.000000,0.000000,36.530000
15.474,0.000000,0.000000,0.000000,0.000000,0.000000,0.000000,36.530000
15.479,0.000000,0.000000,0.000000,0.000000,0.000000,0.000000,36.530000
15.490,0.000000,0.000000,0.000000,0.000000,0.000000,0.000000,36.530000
15.495,0.000000,0.000000,0.000000,0.000000,0.000000,0.000000,36.530000
15.508,0.000000,0.000000,0.000000,0.000000,0.000000,0.000000,36.530000
15.513,0.000000,0.000000,0.000000,0.000000,0.000000,0.000000,36.530000
15.523,0.000000,0.000000,0.000000,0.000000,0.000000,0.000000,36.530000
15.529,0.000000,0.000000,0.000000,0.000000,0.000000,0.000000,36.530000
15.540,0.000000,0.000000,0.000000,0.000000,0.000000,0.000000,36.530000
15.545,0.000000,0.000000,0.000000,0.000000,0.000000,0.000000,36.530000
15.558,0.000000,0.000000,0.000000,0.000000,0.000000,0.000000,36.530000
15.564,0.000000,0.000000,0.000000,0.000000,0.000000,0.000000,36.530000
15.574,0.000000,0.000000,0.000000,0.000000,0.000000,0.000000,36.530000
15.584,0.000000,0.000000,0.000000,0.000000,0.000000,0.000000,36.530000
15.590,0.000000,0.000000,0.000000,0.000000,0.000000,0.000000,36.530000
15.601,0.000000,0.000000,0.000000,0.000000,0.000000,0.000000,36.530000
15.608,0.000000,0.000000,0.000000,0.000000,0.000000,0.000000,36.530000
15.619,0.000000,0.000000,0.000000,0.000000,0.000000,0.000000,36.530000
15.624,0.000000,0.000000,0.000000,0.000000,0.000000,0.000000,36.530000
15.634,0.000000,0.000000,0.000000,0.000000,0.000000,0.000000,36.530000
15.640,0.000000,0.000000,0.000000,0.000000,0.000000,0.000000,36.530000
15.651,0.000000,0.000000,0.000000,0.000000,0.000000,0.000000,36.530000
15.658,0.000000,0.000000,0.000000,0.000000,0.000000,0.000000,36.530000
15.667,0.000000,0.000000,0.000000,0.000000,0.000000,0.000000,36.530000
15.673,0.000000,0.000000,0.000000,0.000000,0.000000,0.000000,36.530000
15.684,0.000000,0.000000,0.000000,0.000000,0.000000,0.000000,36.530000
15.690,0.000000,0.000000,0.000000,0.000000,0.000000,0.000000,36.530000
15.701,0.000000,0.000000,0.000000,0.000000,0.000000,0.000000,36.530000
15.708,0.000000,0.000000,0.000000,0.000000,0.000000,0.000000,36.530000
15.718,0.000000,0.000000,0.000000,0.000000,0.000000,0.000000,36.530000
15.724,0.000000,0.000000,0.000000,0.000000,0.000000,0.000000,36.530000
15.734,0.000000,0.000000,0.000000,0.000000,0.000000,0.000000,36.530000
15.740,0.000000,0.000000,0.000000,0.000000,0.000000,0.000000,36.530000
15.751,0.000000,0.000000,0.000000,0.000000,0.000000,0.000000,36.530000
15.759,0.000000,0.000000,0.000000,0.000000,0.000000,0.000000,36.530000
15.768,0.000000,0.000000,0.000000,0.000000,0.000000,0.000000,36.530000
15.774,0.000000,0.000000,0.000000,0.000000,0.000000,0.000000,36.530000
15.784,0.000000,0.000000,0.000000,0.000000,0.000000,0.000000,36.530000
15.790,0.000000,0.000000,0.000000,0.000000,0.000000,0.000000,36.530000
15.801,0.000000,0.000000,0.000000,0.000000,0.000000,0.000000,36.530000
15.809,0.000000,0.000000,0.000000,0.000000,0.000000,0.000000,36.530000
15.818,0.000000,0.000000,0.000000,0.000000,0.000000,0.000000,36.530000
15.824,0.000000,0.000000,0.000000,0.000000,0.000000,0.000000,36.530000
15.834,0.000000,0.000000,0.000000,0.000000,0.000000,0.000000,36.530000
15.845,0.000000,0.000000,0.000000,0.000000,0.000000,0.000000,36.530000
15.851,0.000000,0.000000,0.000000,0.000000,0.000000,0.000000,36.530000
15.862,0.000000,0.000000,0.000000,0.000000,0.000000,0.000000,36.530000
15.869,0.000000,0.000000,0.000000,0.000000,0.000000,0.000000,36.530000
15.879,0.000000,0.000000,0.000000,0.000000,0.000000,0.000000,36.530000
15.884,0.000000,0.000000,0.000000,0.000000,0.000000,0.000000,36.530000
15.905,0.000000,0.000000,0.000000,0.000000,0.000000,0.000000,36.530000
15.905,0.000000,0.000000,0.000000,0.000000,0.000000,0.000000,36.530000
time_sec,ax,ay,az,gx,gy,gz,temp_c
0.026,0.000000,0.000000,0.000000,0.000000,0.000000,0.000000,36.530000
0.026,0.000000,0.000000,0.000000,0.000000,0.000000,0.000000,36.530000
0.026,0.000000,0.000000,0.000000,0.000000,0.000000,0.000000,36.530000
0.027,0.000000,0.000000,0.000000,0.000000,0.000000,0.000000,36.530000
0.037,0.000000,0.000000,0.000000,0.000000,0.000000,0.000000,36.530000
0.043,0.000000,0.000000,0.000000,0.000000,0.000000,0.000000,36.530000
0.054,0.000000,0.000000,0.000000,0.000000,0.000000,0.000000,36.530000
0.059,0.000000,0.000000,0.000000,0.000000,0.000000,0.000000,36.530000
0.071,0.000000,0.000000,0.000000,0.000000,0.000000,0.000000,36.530000
0.076,0.000000,0.000000,0.000000,0.000000,0.000000,0.000000,36.530000
0.087,0.000000,0.000000,0.000000,0.000000,0.000000,0.000000,36.530000
0.095,0.000000,0.000000,0.000000,0.000000,0.000000,0.000000,36.530000
0.104,0.000000,0.000000,0.000000,0.000000,0.000000,0.000000,36.530000
0.111,0.000000,0.000000,0.000000,0.000000,0.000000,0.000000,36.530000
0.122,0.000000,0.000000,0.000000,0.000000,0.000000,0.000000,36.530000
0.127,0.000000,0.000000,0.000000,0.000000,0.000000,0.000000,36.530000
0.137,0.000000,0.000000,0.000000,0.000000,0.000000,0.000000,36.530000
0.143,0.000000,0.000000,0.000000,0.000000,0.000000,0.000000,36.530000
0.154,0.000000,0.000000,0.000000,0.000000,0.000000,0.000000,36.530000
0.165,0.000000,0.000000,0.000000,0.000000,0.000000,0.000000,36.530000
0.171,0.000000,0.000000,0.000000,0.000000,0.000000,0.000000,36.530000
0.182,0.000000,0.000000,0.000000,0.000000,0.000000,0.000000,36.530000
0.187,0.000000,0.000000,0.000000,0.000000,0.000000,0.000000,36.530000
0.198,0.000000,0.000000,0.000000,0.000000,0.000000,0.000000,36.530000
0.205,0.000000,0.000000,0.000000,0.000000,0.000000,0.000000,36.530000
0.215,0.000000,0.000000,0.000000,0.000000,0.000000,0.000000,36.530000
0.221,0.000000,0.000000,0.000000,0.000000,0.000000,0.000000,36.530000
0.232,0.000000,0.000000,0.000000,0.000000,0.000000,0.000000,36.530000
0.237,0.000000,0.000000,0.000000,0.000000,0.000000,0.000000,36.530000
0.249,0.000000,0.000000,0.000000,0.000000,0.000000,0.000000,36.530000
0.255,0.000000,0.000000,0.000000,0.000000,0.000000,0.000000,36.530000
0.266,0.000000,0.000000,0.000000,0.000000,0.000000,0.000000,36.530000
0.271,0.000000,0.000000,0.000000,0.000000,0.000000,0.000000,36.530000
0.282,0.000000,0.000000,0.000000,0.000000,0.000000,0.000000,36.530000
0.287,0.000000,0.000000,0.000000,0.000000,0.000000,0.000000,36.530000
0.299,0.000000,0.000000,0.000000,0.000000,0.000000,0.000000,36.530000
0.305,0.000000,0.000000,0.000000,0.000000,0.000000,0.000000,36.530000
0.315,0.000000,0.000000,0.000000,0.000000,0.000000,0.000000,36.530000
0.321,0.000000,0.000000,0.000000,0.000000,0.000000,0.000000,36.530000
0.332,0.000000,0.000000,0.000000,0.000000,0.000000,0.000000,36.530000
0.337,0.000000,0.000000,0.000000,0.000000,0.000000,0.000000,36.530000
0.349,0.000000,0.000000,0.000000,0.000000,0.000000,0.000000,36.530000
0.355,0.000000,0.000000,0.000000,0.000000,0.000000,0.000000,36.530000
0.366,0.000000,0.000000,0.000000,0.000000,0.000000,0.000000,36.530000
0.371,0.000000,0.000000,0.000000,0.000000,0.000000,0.000000,36.530000
0.382,0.000000,0.000000,0.000000,0.000000,0.000000,0.000000,36.530000
0.387,0.000000,0.000000,0.000000,0.000000,0.000000,0.000000,36.530000
0.399,0.000000,0.000000,0.000000,0.000000,0.000000,0.000000,36.530000
0.404,0.000000,0.000000,0.000000,0.000000,0.000000,0.000000,36.530000
0.415,0.000000,0.000000,0.000000,0.000000,0.000000,0.000000,36.530000
0.421,0.000000,0.000000,0.000000,0.000000,0.000000,0.000000,36.530000
0.432,0.000000,0.000000,0.000000,0.000000,0.000000,0.000000,36.530000
0.443,0.000000,0.000000,0.000000,0.000000,0.000000,0.000000,36.530000
0.449,0.000000,0.000000,0.000000,0.000000,0.000000,0.000000,36.530000
0.459,0.000000,0.000000,0.000000,0.000000,0.000000,0.000000,36.530000
0.466,0.000000,0.000000,0.000000,0.000000,0.000000,0.000000,36.530000
0.476,0.000000,0.000000,0.000000,0.000000,0.000000,0.000000,36.530000
0.482,0.000000,0.000000,0.000000,0.000000,0.000000,0.000000,36.530000
0.493,0.000000,0.000000,0.000000,0.000000,0.000000,0.000000,36.530000
0.499,0.000000,0.000000,0.000000,0.000000,0.000000,0.000000,36.530000
0.510,0.000000,0.000000,0.000000,0.000000,0.000000,0.000000,36.530000
0.515,0.000000,0.000000,0.000000,0.000000,0.000000,0.000000,36.530000
0.526,0.000000,0.000000,0.000000,0.000000,0.000000,0.000000,36.530000
0.532,0.000000,0.000000,0.000000,0.000000,0.000000,0.000000,36.530000
0.543,0.000000,0.000000,0.000000,0.000000,0.000000,0.000000,36.530000
0.549,0.000000,0.000000,0.000000,0.000000,0.000000,0.000000,36.530000
0.560,0.000000,0.000000,0.000000,0.000000,0.000000,0.000000,36.530000
0.565,0.000000,0.000000,0.000000,0.000000,0.000000,0.000000,36.530000
0.576,0.000000,0.000000,0.000000,0.000000,0.000000,0.000000,36.530000
0.582,0.000000,0.000000,0.000000,0.000000,0.000000,0.000000,36.530000
0.593,0.000000,0.000000,0.000000,0.000000,0.000000,0.000000,36.530000
0.599,0.000000,0.000000,0.000000,0.000000,0.000000,0.000000,36.530000
0.610,0.000000,0.000000,0.000000,0.000000,0.000000,0.000000,36.530000
0.615,0.000000,0.000000,0.000000,0.000000,0.000000,0.000000,36.530000
0.626,0.000000,0.000000,0.000000,0.000000,0.000000,0.000000,36.530000
0.632,0.000000,0.000000,0.000000,0.000000,0.000000,0.000000,36.530000
0.643,0.000000,0.000000,0.000000,0.000000,0.000000,0.000000,36.530000
0.649,0.000000,0.000000,0.000000,0.000000,0.000000,0.000000,36.530000
0.660,0.000000,0.000000,0.000000,0.000000,0.000000,0.000000,36.530000
0.666,0.000000,0.000000,0.000000,0.000000,0.000000,0.000000,36.530000
0.676,0.000000,0.000000,0.000000,0.000000,0.000000,0.000000,36.530000
0.682,0.000000,0.000000,0.000000,0.000000,0.000000,0.000000,36.530000
0.693,0.000000,0.000000,0.000000,0.000000,0.000000,0.000000,36.530000
0.704,0.000000,0.000000,0.000000,0.000000,0.000000,0.000000,36.530000
0.710,0.000000,0.000000,0.000000,0.000000,0.000000,0.000000,36.530000
0.721,0.000000,0.000000,0.000000,0.000000,0.000000,0.000000,36.530000
0.726,0.000000,0.000000,0.000000,0.000000,0.000000,0.000000,36.530000
0.737,0.000000,0.000000,0.000000,0.000000,0.000000,0.000000,36.530000
0.743,0.000000,0.000000,0.000000,0.000000,0.000000,0.000000,36.530000
0.754,0.000000,0.000000,0.000000,0.000000,0.000000,0.000000,36.530000
0.760,0.000000,0.000000,0.000000,0.000000,0.000000,0.000000,36.530000
0.770,0.000000,0.000000,0.000000,0.000000,0.000000,0.000000,36.530000
0.776,0.000000,0.000000,0.000000,0.000000,0.000000,0.000000,36.530000
0.787,0.000000,0.000000,0.000000,0.000000,0.000000,0.000000,36.530000
0.793,0.000000,0.000000,0.000000,0.000000,0.000000,0.000000,36.530000
0.804,0.000000,0.000000,0.000000,0.000000,0.000000,0.000000,36.530000
0.810,0.000000,0.000000,0.000000,0.000000,0.000000,0.000000,36.530000
0.821,0.000000,0.000000,0.000000,0.000000,0.000000,0.000000,36.530000
0.826,0.000000,0.000000,0.000000,0.000000,0.000000,0.000000,36.530000
0.837,0.000000,0.000000,0.000000,0.000000,0.000000,0.000000,36.530000
0.843,0.000000,0.000000,0.000000,0.000000,0.000000,0.000000,36.530000
0.854,0.000000,0.000000,0.000000,0.000000,0.000000,0.000000,36.530000
0.860,0.000000,0.000000,0.000000,0.000000,0.000000,0.000000,36.530000
0.871,0.000000,0.000000,0.000000,0.000000,0.000000,0.000000,36.530000
0.877,0.000000,0.000000,0.000000,0.000000,0.000000,0.000000,36.530000
0.887,0.000000,0.000000,0.000000,0.000000,0.000000,0.000000,36.530000
0.893,0.000000,0.000000,0.000000,0.000000,0.000000,0.000000,36.530000
0.904,0.000000,0.000000,0.000000,0.000000,0.000000,0.000000,36.530000
0.911,0.000000,0.000000,0.000000,0.000000,0.000000,0.000000,36.530000
0.920,0.000000,0.000000,0.000000,0.000000,0.000000,0.000000,36.530000
0.926,0.000000,0.000000,0.000000,0.000000,0.000000,0.000000,36.530000
0.937,0.000000,0.000000,0.000000,0.000000,0.000000,0.000000,36.530000
0.943,0.000000,0.000000,0.000000,0.000000,0.000000,0.000000,36.530000
0.955,0.000000,0.000000,0.000000,0.000000,0.000000,0.000000,36.530000
0.961,0.000000,0.000000,0.000000,0.000000,0.000000,0.000000,36.530000
0.971,0.000000,0.000000,0.000000,0.000000,0.000000,0.000000,36.530000
0.982,0.000000,0.000000,0.000000,0.000000,0.000000,0.000000,36.530000
0.987,0.000000,0.000000,0.000000,0.000000,0.000000,0.000000,36.530000
0.999,0.000000,0.000000,0.000000,0.000000,0.000000,0.000000,36.530000
1.004,0.000000,0.000000,0.000000,0.000000,0.000000,0.000000,36.530000
1.015,0.000000,0.000000,0.000000,0.000000,0.000000,0.000000,36.530000
1.021,0.000000,0.000000,0.000000,0.000000,0.000000,0.000000,36.530000
1.032,0.000000,0.000000,0.000000,0.000000,0.000000,0.000000,36.530000
1.037,0.000000,0.000000,0.000000,0.000000,0.000000,0.000000,36.530000
1.049,0.000000,0.000000,0.000000,0.000000,0.000000,0.000000,36.530000
1.055,0.000000,0.000000,0.000000,0.000000,0.000000,0.000000,36.530000
1.065,0.000000,0.000000,0.000000,0.000000,0.000000,0.000000,36.530000
1.071,0.000000,0.000000,0.000000,0.000000,0.000000,0.000000,36.530000
1.082,0.000000,0.000000,0.000000,0.000000,0.000000,0.000000,36.530000
1.087,0.000000,0.000000,0.000000,0.000000,0.000000,0.000000,36.530000
1.099,0.000000,0.000000,0.000000,0.000000,0.000000,0.000000,36.530000
1.104,0.000000,0.000000,0.000000,0.000000,0.000000,0.000000,36.530000
1.115,0.000000,0.000000,0.000000,0.000000,0.000000,0.000000,36.530000
1.121,0.000000,0.000000,0.000000,0.000000,0.000000,0.000000,36.530000
1.132,0.000000,0.000000,0.000000,0.000000,0.000000,0.000000,36.530000
1.137,0.000000,0.000000,0.000000,0.000000,0.000000,0.000000,36.530000
1.148,0.000000,0.000000,0.000000,0.000000,0.000000,0.000000,36.530000
1.155,0.000000,0.000000,0.000000,0.000000,0.000000,0.000000,36.530000
1.165,0.000000,0.000000,0.000000,0.000000,0.000000,0.000000,36.530000
1.171,0.000000,0.000000,0.000000,0.000000,0.000000,0.000000,36.530000
1.182,0.000000,0.000000,0.000000,0.000000,0.000000,0.000000,36.530000
1.187,0.000000,0.000000,0.000000,0.000000,0.000000,0.000000,36.530000
1.199,0.000000,0.000000,0.000000,0.000000,0.000000,0.000000,36.530000
1.204,0.000000,0.000000,0.000000,0.000000,0.000000,0.000000,36.530000
1.215,0.000000,0.000000,0.000000,0.000000,0.000000,0.000000,36.530000
1.221,0.000000,0.000000,0.000000,0.000000,0.000000,0.000000,36.530000
1.232,0.000000,0.000000,0.000000,0.000000,0.000000,0.000000,36.530000
1.243,0.000000,0.000000,0.000000,0.000000,0.000000,0.000000,36.530000
1.249,0.000000,0.000000,0.000000,0.000000,0.000000,0.000000,36.530000
1.259,0.000000,0.000000,0.000000,0.000000,0.000000,0.000000,36.530000
1.265,0.000000,0.000000,0.000000,0.000000,0.000000,0.000000,36.530000
1.276,0.000000,0.000000,0.000000,0.000000,0.000000,0.000000,36.530000
1.282,0.000000,0.000000,0.000000,0.000000,0.000000,0.000000,36.530000
1.293,0.000000,0.000000,0.000000,0.000000,0.000000,0.000000,36.530000
1.299,0.000000,0.000000,0.000000,0.000000,0.000000,0.000000,36.530000
1.309,0.000000,0.000000,0.000000,0.000000,0.000000,0.000000,36.530000
1.315,0.000000,0.000000,0.000000,0.000000,0.000000,0.000000,36.530000
1.326,0.000000,0.000000,0.000000,0.000000,0.000000,0.000000,36.530000
1.332,0.000000,0.000000,0.000000,0.000000,0.000000,0.000000,36.530000
1.343,0.000000,0.000000,0.000000,0.000000,0.000000,0.000000,36.530000
1.349,0.000000,0.000000,0.000000,0.000000,0.000000,0.000000,36.530000
1.359,0.000000,0.000000,0.000000,0.000000,0.000000,0.000000,36.530000
1.365,0.000000,0.000000,0.000000,0.000000,0.000000,0.000000,36.530000
1.376,0.000000,0.000000,0.000000,0.000000,0.000000,0.000000,36.530000
1.382,0.000000,0.000000,0.000000,0.000000,0.000000,0.000000,36.530000
1.393,0.000000,0.000000,0.000000,0.000000,0.000000,0.000000,36.530000
1.399,0.000000,0.000000,0.000000,0.000000,0.000000,0.000000,36.530000
1.410,0.000000,0.000000,0.000000,0.000000,0.000000,0.000000,36.530000
1.416,0.000000,0.000000,0.000000,0.000000,0.000000,0.000000,36.530000
1.426,0.000000,0.000000,0.000000,0.000000,0.000000,0.000000,36.530000
1.432,0.000000,0.000000,0.000000,0.000000,0.000000,0.000000,36.530000
1.443,0.000000,0.000000,0.000000,0.000000,0.000000,0.000000,36.530000
1.449,0.000000,0.000000,0.000000,0.000000,0.000000,0.000000,36.530000
1.460,0.000000,0.000000,0.000000,0.000000,0.000000,0.000000,36.530000
1.466,0.000000,0.000000,0.000000,0.000000,0.000000,0.000000,36.530000
1.476,0.000000,0.000000,0.000000,0.000000,0.000000,0.000000,36.530000
1.482,0.000000,0.000000,0.000000,0.000000,0.000000,0.000000,36.530000
1.493,0.000000,0.000000,0.000000,0.000000,0.000000,0.000000,36.530000
1.499,0.000000,0.000000,0.000000,0.000000,0.000000,0.000000,36.530000
1.510,0.000000,0.000000,0.000000,0.000000,0.000000,0.000000,36.530000
1.520,0.000000,0.000000,0.000000,0.000000,0.000000,0.000000,36.530000
1.526,0.000000,0.000000,0.000000,0.000000,0.000000,0.000000,36.530000
1.537,0.000000,0.000000,0.000000,0.000000,0.000000,0.000000,36.530000
1.543,0.000000,0.000000,0.000000,0.000000,0.000000,0.000000,36.530000
1.554,0.000000,0.000000,0.000000,0.000000,0.000000,0.000000,36.530000
1.560,0.000000,0.000000,0.000000,0.000000,0.000000,0.000000,36.530000
1.570,0.000000,0.000000,0.000000,0.000000,0.000000,0.000000,36.530000
1.576,0.000000,0.000000,0.000000,0.000000,0.000000,0.000000,36.530000
1.587,0.000000,0.000000,0.000000,0.000000,0.000000,0.000000,36.530000
1.594,0.000000,0.000000,0.000000,0.000000,0.000000,0.000000,36.530000
1.605,0.000000,0.000000,0.000000,0.000000,0.000000,0.000000,36.530000
1.610,0.000000,0.000000,0.000000,0.000000,0.000000,0.000000,36.530000
1.620,0.000000,0.000000,0.000000,0.000000,0.000000,0.000000,36.530000
1.626,0.000000,0.000000,0.000000,0.000000,0.000000,0.000000,36.530000
1.637,0.000000,0.000000,0.000000,0.000000,0.000000,0.000000,36.530000
1.643,0.000000,0.000000,0.000000,0.000000,0.000000,0.000000,36.530000
1.654,0.000000,0.000000,0.000000,0.000000,0.000000,0.000000,36.530000
1.659,0.000000,0.000000,0.000000,0.000000,0.000000,0.000000,36.530000
1.670,0.000000,0.000000,0.000000,0.000000,0.000000,0.000000,36.530000
1.676,0.000000,0.000000,0.000000,0.000000,0.000000,0.000000,36.530000
1.687,0.000000,0.000000,0.000000,0.000000,0.000000,0.000000,36.530000
1.693,0.000000,0.000000,0.000000,0.000000,0.000000,0.000000,36.530000
1.705,0.000000,0.000000,0.000000,0.000000,0.000000,0.000000,36.530000
1.711,0.000000,0.000000,0.000000,0.000000,0.000000,0.000000,36.530000
1.721,0.000000,0.000000,0.000000,0.000000,0.000000,0.000000,36.530000
1.726,0.000000,0.000000,0.000000,0.000000,0.000000,0.000000,36.530000
1.737,0.000000,0.000000,0.000000,0.000000,0.000000,0.000000,36.530000
1.743,0.000000,0.000000,0.000000,0.000000,0.000000,0.000000,36.530000
1.754,0.000000,0.000000,0.000000,0.000000,0.000000,0.000000,36.530000
1.760,0.000000,0.000000,0.000000,0.000000,0.000000,0.000000,36.530000
1.770,0.000000,0.000000,0.000000,0.000000,0.000000,0.000000,36.530000
1.782,0.000000,0.000000,0.000000,0.000000,0.000000,0.000000,36.530000
1.787,0.000000,0.000000,0.000000,0.000000,0.000000,0.000000,36.530000
1.798,0.000000,0.000000,0.000000,0.000000,0.000000,0.000000,36.530000
1.804,0.000000,0.000000,0.000000,0.000000,0.000000,0.000000,36.530000
1.816,0.000000,0.000000,0.000000,0.000000,0.000000,0.000000,36.530000
1.820,0.000000,0.000000,0.000000,0.000000,0.000000,0.000000,36.530000
1.832,0.000000,0.000000,0.000000,0.000000,0.000000,0.000000,36.530000
1.837,0.000000,0.000000,0.000000,0.000000,0.000000,0.000000,36.530000
1.848,0.000000,0.000000,0.000000,0.000000,0.000000,0.000000,36.530000
1.854,0.000000,0.000000,0.000000,0.000000,0.000000,0.000000,36.530000
1.865,0.000000,0.000000,0.000000,0.000000,0.000000,0.000000,36.530000
1.870,0.000000,0.000000,0.000000,0.000000,0.000000,0.000000,36.530000
1.882,0.000000,0.000000,0.000000,0.000000,0.000000,0.000000,36.530000
1.887,0.000000,0.000000,0.000000,0.000000,0.000000,0.000000,36.530000
1.898,0.000000,0.000000,0.000000,0.000000,0.000000,0.000000,36.530000
1.906,0.000000,0.000000,0.000000,0.000000,0.000000,0.000000,36.530000
1.916,0.000000,0.000000,0.000000,0.000000,0.000000,0.000000,36.530000
1.920,0.000000,0.000000,0.000000,0.000000,0.000000,0.000000,36.530000
1.932,0.000000,0.000000,0.000000,0.000000,0.000000,0.000000,36.530000
1.937,0.000000,0.000000,0.000000,0.000000,0.000000,0.000000,36.530000
1.948,0.000000,0.000000,0.000000,0.000000,0.000000,0.000000,36.530000
1.954,0.000000,0.000000,0.000000,0.000000,0.000000,0.000000,36.530000
1.965,0.000000,0.000000,0.000000,0.000000,0.000000,0.000000,36.530000
1.970,0.000000,0.000000,0.000000,0.000000,0.000000,0.000000,36.530000
1.982,0.000000,0.000000,0.000000,0.000000,0.000000,0.000000,36.530000
1.987,0.000000,0.000000,0.000000,0.000000,0.000000,0.000000,36.530000
1.998,0.000000,0.000000,0.000000,0.000000,0.000000,0.000000,36.530000
2.006,0.000000,0.000000,0.000000,0.000000,0.000000,0.000000,36.530000
2.016,0.000000,0.000000,0.000000,0.000000,0.000000,0.000000,36.530000
2.020,0.000000,0.000000,0.000000,0.000000,0.000000,0.000000,36.530000
2.032,0.000000,0.000000,0.000000,0.000000,0.000000,0.000000,36.530000
2.037,0.000000,0.000000,0.000000,0.000000,0.000000,0.000000,36.530000
2.048,0.000000,0.000000,0.000000,0.000000,0.000000,0.000000,36.530000
2.060,0.000000,0.000000,0.000000,0.000000,0.000000,0.000000,36.530000
2.065,0.000000,0.000000,0.000000,0.000000,0.000000,0.000000,36.530000
2.076,0.000000,0.000000,0.000000,0.000000,0.000000,0.000000,36.530000
2.082,0.000000,0.000000,0.000000,0.000000,0.000000,0.000000,36.530000
2.093,0.000000,0.000000,0.000000,0.000000,0.000000,0.000000,36.530000
2.098,0.000000,0.000000,0.000000,0.000000,0.000000,0.000000,36.530000
2.109,0.000000,0.000000,0.000000,0.000000,0.000000,0.000000,36.530000
2.115,0.000000,0.000000,0.000000,0.000000,0.000000,0.000000,36.530000
2.126,0.000000,0.000000,0.000000,0.000000,0.000000,0.000000,36.530000
2.132,0.000000,0.000000,0.000000,0.000000,0.000000,0.000000,36.530000
2.143,0.000000,0.000000,0.000000,0.000000,0.000000,0.000000,36.530000
2.148,0.000000,0.000000,0.000000,0.000000,0.000000,0.000000,36.530000
2.160,0.000000,0.000000,0.000000,0.000000,0.000000,0.000000,36.530000
2.165,0.000000,0.000000,0.000000,0.000000,0.000000,0.000000,36.530000
2.176,0.000000,0.000000,0.000000,0.000000,0.000000,0.000000,36.530000
2.182,0.000000,0.000000,0.000000,0.000000,0.000000,0.000000,36.530000
2.193,0.000000,0.000000,0.000000,0.000000,0.000000,0.000000,36.530000
2.198,0.000000,0.000000,0.000000,0.000000,0.000000,0.000000,36.530000
2.210,0.000000,0.000000,0.000000,0.000000,0.000000,0.000000,36.530000
2.216,0.000000,0.000000,0.000000,0.000000,0.000000,0.000000,36.530000
2.226,0.000000,0.000000,0.000000,0.000000,0.000000,0.000000,36.530000
2.232,0.000000,0.000000,0.000000,0.000000,0.000000,0.000000,36.530000
2.243,0.000000,0.000000,0.000000,0.000000,0.000000,0.000000,36.530000
2.249,0.000000,0.000000,0.000000,0.000000,0.000000,0.000000,36.530000
2.260,0.000000,0.000000,0.000000,0.000000,0.000000,0.000000,36.530000
2.266,0.000000,0.000000,0.000000,0.000000,0.000000,0.000000,36.530000
2.276,0.000000,0.000000,0.000000,0.000000,0.000000,0.000000,36.530000
2.282,0.000000,0.000000,0.000000,0.000000,0.000000,0.000000,36.530000
2.293,0.000000,0.000000,0.000000,0.000000,0.000000,0.000000,36.530000
2.299,0.000000,0.000000,0.000000,0.000000,0.000000,0.000000,36.530000
2.310,0.000000,0.000000,0.000000,0.000000,0.000000,0.000000,36.530000
2.320,0.000000,0.000000,0.000000,0.000000,0.000000,0.000000,36.530000
2.326,0.000000,0.000000,0.000000,0.000000,0.000000,0.000000,36.530000
2.337,0.000000,0.000000,0.000000,0.000000,0.000000,0.000000,36.530000
2.343,0.000000,0.000000,0.000000,0.000000,0.000000,0.000000,36.530000
2.354,0.000000,0.000000,0.000000,0.000000,0.000000,0.000000,36.530000
2.359,0.000000,0.000000,0.000000,0.000000,0.000000,0.000000,36.530000
2.370,0.000000,0.000000,0.000000,0.000000,0.000000,0.000000,36.530000
2.376,0.000000,0.000000,0.000000,0.000000,0.000000,0.000000,36.530000
2.387,0.000000,0.000000,0.000000,0.000000,0.000000,0.000000,36.530000
2.393,0.000000,0.000000,0.000000,0.000000,0.000000,0.000000,36.530000
2.405,0.000000,0.000000,0.000000,0.000000,0.000000,0.000000,36.530000
2.410,0.000000,0.000000,0.000000,0.000000,0.000000,0.000000,36.530000
2.420,0.000000,0.000000,0.000000,0.000000,0.000000,0.000000,36.530000
2.426,0.000000,0.000000,0.000000,0.000000,0.000000,0.000000,36.530000
2.437,0.000000,0.000000,0.000000,0.000000,0.000000,0.000000,36.530000
2.444,0.000000,0.000000,0.000000,0.000000,0.000000,0.000000,36.530000
2.454,0.000000,0.000000,0.000000,0.000000,0.000000,0.000000,36.530000
2.459,0.000000,0.000000,0.000000,0.000000,0.000000,0.000000,36.530000
2.470,0.000000,0.000000,0.000000,0.000000,0.000000,0.000000,36.530000
2.476,0.000000,0.000000,0.000000,0.000000,0.000000,0.000000,36.530000
2.487,0.000000,0.000000,0.000000,0.000000,0.000000,0.000000,36.530000
2.493,0.000000,0.000000,0.000000,0.000000,0.000000,0.000000,36.530000
2.505,0.000000,0.000000,0.000000,0.000000,0.000000,0.000000,36.530000
2.510,0.000000,0.000000,0.000000,0.000000,0.000000,0.000000,36.530000
2.520,0.000000,0.000000,0.000000,0.000000,0.000000,0.000000,36.530000
2.526,0.000000,0.000000,0.000000,0.000000,0.000000,0.000000,36.530000
2.537,0.000000,0.000000,0.000000,0.000000,0.000000,0.000000,36.530000
2.544,0.000000,0.000000,0.000000,0.000000,0.000000,0.000000,36.530000
2.554,0.000000,0.000000,0.000000,0.000000,0.000000,0.000000,36.530000
2.560,0.000000,0.000000,0.000000,0.000000,0.000000,0.000000,36.530000
2.570,0.000000,0.000000,0.000000,0.000000,0.000000,0.000000,36.530000
2.576,0.000000,0.000000,0.000000,0.000000,0.000000,0.000000,36.530000
2.587,0.000000,0.000000,0.000000,0.000000,0.000000,0.000000,36.530000
2.598,0.000000,0.000000,0.000000,0.000000,0.000000,0.000000,36.530000
2.605,0.000000,0.000000,0.000000,0.000000,0.000000,0.000000,36.530000
2.615,0.000000,0.000000,0.000000,0.000000,0.000000,0.000000,36.530000
2.620,0.000000,0.000000,0.000000,0.000000,0.000000,0.000000,36.530000
2.631,0.000000,0.000000,0.000000,0.000000,0.000000,0.000000,36.530000
2.637,0.000000,0.000000,0.000000,0.000000,0.000000,0.000000,36.530000
2.649,0.000000,0.000000,0.000000,0.000000,0.000000,0.000000,36.530000
2.655,0.000000,0.000000,0.000000,0.000000,0.000000,0.000000,36.530000
2.665,0.000000,0.000000,0.000000,0.000000,0.000000,0.000000,36.530000
2.670,0.000000,0.000000,0.000000,0.000000,0.000000,0.000000,36.530000
2.681,0.000000,0.000000,0.000000,0.000000,0.000000,0.000000,36.530000
2.687,0.000000,0.000000,0.000000,0.000000,0.000000,0.000000,36.530000
2.698,0.000000,0.000000,0.000000,0.000000,0.000000,0.000000,36.530000
2.705,0.000000,0.000000,0.000000,0.000000,0.000000,0.000000,36.530000
2.715,0.000000,0.000000,0.000000,0.000000,0.000000,0.000000,36.530000
2.720,0.000000,0.000000,0.000000,0.000000,0.000000,0.000000,36.530000
2.731,0.000000,0.000000,0.000000,0.000000,0.000000,0.000000,36.530000
2.737,0.000000,0.000000,0.000000,0.000000,0.000000,0.000000,36.530000
2.748,0.000000,0.000000,0.000000,0.000000,0.000000,0.000000,36.530000
2.754,0.000000,0.000000,0.000000,0.000000,0.000000,0.000000,36.530000
2.765,0.000000,0.000000,0.000000,0.000000,0.000000,0.000000,36.530000
2.770,0.000000,0.000000,0.000000,0.000000,0.000000,0.000000,36.530000
2.781,0.000000,0.000000,0.000000,0.000000,0.000000,0.000000,36.530000
2.787,0.000000,0.000000,0.000000,0.000000,0.000000,0.000000,36.530000
2.798,0.000000,0.000000,0.000000,0.000000,0.000000,0.000000,36.530000
2.805,0.000000,0.000000,0.000000,0.000000,0.000000,0.000000,36.530000
2.816,0.000000,0.000000,0.000000,0.000000,0.000000,0.000000,36.530000
2.820,0.000000,0.000000,0.000000,0.000000,0.000000,0.000000,36.530000
2.832,0.000000,0.000000,0.000000,0.000000,0.000000,0.000000,36.530000
2.837,0.000000,0.000000,0.000000,0.000000,0.000000,0.000000,36.530000
2.848,0.000000,0.000000,0.000000,0.000000,0.000000,0.000000,36.530000
2.859,0.000000,0.000000,0.000000,0.000000,0.000000,0.000000,36.530000
2.865,0.000000,0.000000,0.000000,0.000000,0.000000,0.000000,36.530000
2.876,0.000000,0.000000,0.000000,0.000000,0.000000,0.000000,36.530000
2.881,0.000000,0.000000,0.000000,0.000000,0.000000,0.000000,36.530000
2.893,0.000000,0.000000,0.000000,0.000000,0.000000,0.000000,36.530000
2.899,0.000000,0.000000,0.000000,0.000000,0.000000,0.000000,36.530000
2.909,0.000000,0.000000,0.000000,0.000000,0.000000,0.000000,36.530000
2.915,0.000000,0.000000,0.000000,0.000000,0.000000,0.000000,36.530000
0.019,-0.634000,0.333000,0.648000,2.817000,-1.489000,3.053000,23.070000
0.027,-0.623000,0.337000,0.646000,4.214000,-0.435000,2.992000,23.070000
0.040,-0.623000,0.340000,0.651000,4.550000,1.382000,2.481000,23.170000
0.047,-0.639000,0.342000,0.656000,4.840000,2.412000,2.206000,23.170000
0.060,-0.641000,0.338000,0.653000,5.000000,2.397000,2.534000,23.170000
0.067,-0.653000,0.341000,0.648000,5.748000,1.779000,2.313000,23.170000
0.080,-0.656000,0.345000,0.651000,5.878000,1.565000,1.160000,23.260000
0.088,-0.651000,0.353000,0.657000,5.954000,0.954000,0.023000,23.260000
0.101,-0.657000,0.351000,0.670000,6.198000,-0.214000,-0.183000,23.260000
0.108,-0.642000,0.347000,0.672000,5.870000,-0.122000,-0.489000,23.260000
0.120,-0.629000,0.349000,0.658000,6.870000,-3.405000,-0.664000,23.170000
0.127,-0.630000,0.357000,0.671000,5.061000,1.092000,0.626000,23.170000
0.140,-0.632000,0.361000,0.669000,4.168000,-0.229000,1.382000,23.170000
0.147,-0.631000,0.363000,0.678000,3.588000,0.504000,2.076000,23.260000
0.160,-0.631000,0.353000,0.671000,2.763000,0.076000,2.427000,23.260000
0.167,-0.642000,0.359000,0.668000,2.947000,-0.321000,2.412000,23.260000
0.173,-0.637000,0.353000,0.674000,3.168000,0.015000,2.290000,23.170000
0.189,-0.634000,0.362000,0.663000,2.855000,0.237000,1.695000,23.260000
0.196,-0.629000,0.347000,0.665000,3.939000,-1.802000,1.405000,23.170000
0.208,-0.624000,0.352000,0.660000,2.595000,0.481000,2.168000,23.170000
0.216,-0.619000,0.354000,0.660000,2.916000,0.244000,2.496000,23.210000
0.228,-0.613000,0.353000,0.661000,3.061000,1.412000,2.878000,23.210000
0.235,-0.632000,0.353000,0.656000,2.733000,1.603000,3.779000,23.210000
0.248,-0.624000,0.350000,0.655000,2.748000,1.473000,4.313000,23.210000
0.256,-0.632000,0.361000,0.666000,3.260000,1.534000,4.023000,23.210000
0.268,-0.633000,0.355000,0.655000,3.427000,1.366000,3.557000,23.310000
0.275,-0.615000,0.359000,0.656000,4.962000,3.885000,3.817000,23.210000
0.290,-0.628000,0.360000,0.652000,3.237000,3.534000,3.206000,23.210000
0.296,-0.637000,0.357000,0.652000,3.885000,3.473000,3.000000,23.210000
0.309,-0.647000,0.366000,0.661000,3.359000,3.855000,2.962000,23.210000
0.316,-0.653000,0.380000,0.659000,2.305000,3.389000,2.870000,23.210000
0.329,-0.662000,0.381000,0.663000,1.794000,2.687000,2.817000,23.210000
0.336,-0.656000,0.377000,0.657000,1.817000,2.076000,2.718000,23.170000
0.349,-0.656000,0.378000,0.656000,1.198000,1.305000,2.183000,23.260000
0.356,-0.653000,0.381000,0.661000,0.947000,0.573000,1.565000,23.170000
0.369,-0.649000,0.373000,0.660000,0.656000,-0.023000,1.489000,23.260000
0.376,-0.642000,0.377000,0.666000,0.115000,-0.115000,1.656000,23.260000
0.390,-0.635000,0.377000,0.664000,-0.252000,-0.168000,1.122000,23.260000
0.397,-0.632000,0.372000,0.664000,-1.443000,-0.145000,1.366000,23.260000
0.409,-0.618000,0.368000,0.664000,-2.145000,0.069000,1.985000,23.260000
0.416,-0.616000,0.358000,0.658000,-1.863000,0.420000,2.771000,23.260000
0.429,-0.613000,0.372000,0.653000,-1.389000,1.366000,3.351000,23.170000
0.436,-0.630000,0.365000,0.660000,-0.916000,2.130000,3.573000,23.260000
0.450,-0.645000,0.374000,0.666000,-1.176000,2.473000,3.389000,23.170000
0.456,-0.655000,0.373000,0.677000,-1.740000,2.313000,3.115000,23.260000
0.469,-0.667000,0.371000,0.673000,-2.954000,1.282000,2.031000,23.260000
0.476,-0.654000,0.371000,0.673000,-4.122000,-0.092000,1.397000,23.260000
0.490,-0.645000,0.357000,0.657000,-4.794000,-1.573000,1.443000,23.260000
0.496,-0.626000,0.349000,0.661000,-4.756000,-1.527000,1.511000,23.260000
0.509,-0.615000,0.352000,0.636000,-3.931000,-0.977000,2.122000,23.260000
0.516,-0.613000,0.356000,0.643000,-3.863000,0.313000,2.595000,23.170000
0.528,-0.619000,0.352000,0.650000,-3.382000,0.855000,3.084000,23.260000
0.536,-0.634000,0.366000,0.656000,-3.191000,1.160000,3.305000,23.210000
0.548,-0.635000,0.365000,0.652000,-3.611000,0.779000,2.977000,23.310000
0.556,-0.638000,0.357000,0.660000,-4.420000,0.321000,3.443000,23.210000
0.568,-0.639000,0.360000,0.654000,-4.588000,0.061000,3.664000,23.210000
0.576,-0.637000,0.356000,0.654000,-4.168000,0.137000,4.023000,23.310000
0.590,-0.635000,0.351000,0.634000,-3.809000,0.427000,3.748000,23.210000
0.596,-0.641000,0.355000,0.647000,-3.405000,0.313000,3.634000,23.210000
0.609,-0.635000,0.351000,0.647000,-1.954000,0.840000,3.366000,23.210000
0.616,-0.644000,0.355000,0.647000,-2.649000,-0.305000,3.183000,23.210000
0.628,-0.642000,0.365000,0.653000,-3.565000,0.122000,3.160000,23.210000
0.636,-0.632000,0.362000,0.654000,-3.756000,0.397000,3.740000,23.310000
0.648,-0.639000,0.361000,0.648000,-3.481000,0.992000,4.359000,23.310000
0.656,-0.645000,0.370000,0.654000,-3.412000,1.382000,4.466000,23.120000
0.668,-0.657000,0.367000,0.640000,-3.756000,0.962000,3.924000,23.310000
0.676,-0.657000,0.362000,0.653000,-4.351000,0.855000,3.153000,23.210000
0.690,-0.661000,0.354000,0.644000,-4.206000,1.252000,2.779000,23.210000
0.696,-0.660000,0.340000,0.627000,-4.000000,-1.122000,2.321000,23.400000
0.708,-0.645000,0.337000,0.628000,-3.321000,-2.046000,1.893000,23.170000
0.716,-0.635000,0.339000,0.625000,-2.466000,-1.855000,2.366000,23.260000
0.728,-0.625000,0.339000,0.623000,-1.420000,-0.466000,2.542000,23.350000
0.735,-0.641000,0.339000,0.622000,-0.145000,0.817000,2.466000,23.260000
0.748,-0.639000,0.334000,0.627000,0.221000,1.130000,2.527000,23.350000
0.756,-0.645000,0.334000,0.634000,0.710000,0.328000,3.130000,23.350000
0.768,-0.639000,0.345000,0.629000,0.893000,-0.092000,3.336000,23.350000
0.775,-0.643000,0.346000,0.631000,1.344000,-0.038000,3.565000,23.260000
0.790,-0.642000,0.353000,0.635000,2.282000,0.023000,3.763000,23.260000
0.796,-0.650000,0.358000,0.635000,2.878000,0.351000,3.359000,23.350000
0.809,-0.656000,0.356000,0.649000,3.298000,0.511000,2.511000,23.350000
0.816,-0.667000,0.366000,0.647000,1.198000,-0.641000,1.725000,23.350000
0.828,-0.664000,0.367000,0.655000,2.374000,0.015000,0.809000,23.170000
0.836,-0.660000,0.372000,0.652000,1.687000,-1.122000,0.969000,23.350000
0.849,-0.647000,0.376000,0.645000,1.092000,-1.786000,1.176000,23.260000
0.858,-0.644000,0.370000,0.647000,0.679000,-2.076000,1.527000,23.260000
0.869,-0.646000,0.363000,0.642000,1.595000,-1.718000,1.641000,23.210000
0.876,-0.642000,0.368000,0.651000,2.412000,-1.435000,1.115000,23.210000
0.890,-0.652000,0.375000,0.668000,2.290000,-1.298000,-0.313000,23.310000
0.896,-0.655000,0.374000,0.662000,1.664000,-1.550000,-1.290000,23.400000
0.908,-0.642000,0.382000,0.669000,0.947000,-1.679000,-1.931000,23.210000
0.917,-0.636000,0.375000,0.666000,0.260000,-2.611000,-1.695000,23.310000
0.928,-0.638000,0.364000,0.665000,-0.618000,-3.206000,-0.847000,23.310000
0.935,-0.623000,0.362000,0.658000,-0.885000,-3.046000,0.015000,23.210000
0.948,-0.609000,0.365000,0.662000,-0.695000,-2.053000,0.473000,23.310000
0.956,-0.611000,0.361000,0.658000,-0.336000,-0.649000,1.069000,23.310000
0.968,-0.627000,0.360000,0.666000,-0.863000,-0.504000,1.046000,23.210000
0.975,-0.635000,0.355000,0.653000,-1.015000,-1.336000,0.504000,23.210000
0.987,-0.633000,0.353000,0.660000,-1.275000,-1.824000,0.046000,23.310000
1.001,-0.619000,0.355000,0.655000,-1.305000,-2.290000,0.565000,23.310000
1.007,-0.612000,0.351000,0.653000,-0.954000,-2.137000,1.550000,23.350000
1.020,-0.614000,0.353000,0.644000,-0.244000,-1.046000,1.420000,23.170000
1.027,-0.619000,0.349000,0.649000,0.565000,-0.153000,1.481000,23.350000
1.040,-0.631000,0.346000,0.650000,1.229000,0.168000,1.183000,23.260000
1.047,-0.636000,0.346000,0.636000,1.573000,-0.450000,0.809000,23.260000
1.060,-0.628000,0.358000,0.663000,1.420000,-0.336000,0.603000,23.350000
1.067,-0.629000,0.359000,0.654000,0.786000,-0.489000,0.542000,23.350000
1.080,-0.629000,0.357000,0.656000,0.504000,-0.756000,0.817000,23.350000
1.087,-0.632000,0.351000,0.661000,0.496000,-0.924000,1.145000,23.450000
1.101,-0.632000,0.352000,0.653000,0.992000,-0.885000,1.092000,23.260000
1.108,-0.628000,0.357000,0.658000,1.053000,-0.443000,1.069000,23.260000
1.120,-0.632000,0.361000,0.665000,1.153000,-0.382000,0.473000,23.350000
1.127,-0.628000,0.362000,0.666000,1.221000,-0.519000,0.290000,23.350000
1.140,-0.627000,0.362000,0.671000,0.618000,-0.115000,0.443000,23.260000
1.148,-0.621000,0.365000,0.670000,0.618000,0.344000,1.656000,23.350000
1.160,-0.631000,0.368000,0.674000,0.160000,-0.008000,2.405000,23.350000
1.167,-0.634000,0.363000,0.667000,-0.924000,0.107000,2.244000,23.310000
1.180,-0.628000,0.356000,0.656000,-1.061000,0.557000,2.321000,23.400000
1.189,-0.631000,0.344000,0.662000,-0.924000,0.870000,2.351000,23.310000
1.200,-0.630000,0.339000,0.652000,-0.107000,1.229000,2.053000,23.400000
1.208,-0.628000,0.350000,0.652000,0.641000,1.244000,1.511000,23.210000
1.215,-0.636000,0.354000,0.655000,0.496000,1.611000,1.382000,23.310000
1.228,-0.646000,0.359000,0.658000,0.046000,1.397000,1.198000,23.210000
1.235,-0.646000,0.365000,0.657000,-0.206000,1.023000,1.282000,23.400000
1.248,-0.636000,0.360000,0.659000,-0.443000,0.794000,1.015000,23.310000
1.257,-0.631000,0.351000,0.659000,-0.344000,0.580000,1.336000,23.310000
1.268,-0.632000,0.353000,0.652000,0.023000,0.511000,1.382000,23.310000
1.275,-0.628000,0.350000,0.646000,0.221000,0.878000,0.718000,23.400000
1.290,-0.620000,0.354000,0.650000,0.611000,1.275000,0.588000,23.210000
1.296,-0.622000,0.349000,0.641000,0.855000,1.565000,0.893000,23.310000
1.308,-0.616000,0.344000,0.648000,1.244000,1.443000,1.145000,23.400000
1.316,-0.618000,0.361000,0.649000,1.595000,1.481000,1.504000,23.450000
1.328,-0.621000,0.358000,0.644000,1.649000,1.802000,1.634000,23.350000
1.336,-0.626000,0.356000,0.650000,1.466000,1.832000,2.336000,23.450000
1.348,-0.641000,0.364000,0.660000,1.282000,1.687000,2.420000,23.450000
1.356,-0.644000,0.352000,0.653000,1.550000,1.328000,2.389000,23.350000
1.368,-0.647000,0.352000,0.666000,1.336000,1.053000,2.099000,23.450000
1.376,-0.641000,0.349000,0.650000,1.702000,0.588000,1.916000,23.260000
1.390,-0.639000,0.357000,0.650000,1.733000,0.763000,1.618000,23.350000
1.397,-0.634000,0.359000,0.661000,1.718000,1.214000,1.397000,23.260000
1.410,-0.644000,0.360000,0.659000,1.824000,1.649000,1.183000,23.350000
1.416,-0.649000,0.367000,0.668000,1.702000,1.275000,1.061000,23.350000
1.429,-0.654000,0.371000,0.667000,0.824000,0.962000,1.099000,23.350000
1.436,-0.657000,0.375000,0.645000,-0.168000,0.298000,1.305000,23.350000
1.449,-0.650000,0.375000,0.655000,-0.282000,-0.527000,0.496000,23.350000
1.457,-0.637000,0.366000,0.643000,-0.382000,-0.527000,-0.061000,23.350000
1.469,-0.621000,0.360000,0.646000,0.229000,0.420000,-0.015000,23.350000
1.476,-0.610000,0.361000,0.638000,0.695000,1.969000,0.427000,23.350000
1.490,-0.623000,0.357000,0.639000,1.427000,2.511000,0.992000,23.450000
1.497,-0.640000,0.360000,0.643000,1.489000,2.313000,0.832000,23.350000
1.510,-0.647000,0.348000,0.637000,1.786000,0.924000,0.618000,23.350000
1.516,-0.642000,0.342000,0.649000,2.023000,-0.069000,0.985000,23.350000
1.529,-0.633000,0.345000,0.649000,2.802000,-0.046000,0.840000,23.310000
1.537,-0.618000,0.348000,0.652000,2.969000,0.611000,0.641000,23.400000
