time_sec,ax,ay,az,gx,gy,gz,temp_c
0.036,-0.920000,-0.312000,0.220000,0.458000,-0.153000,1.412000,26.080000
0.036,-0.917000,-0.312000,0.217000,1.038000,0.748000,1.725000,26.080000
0.037,-0.911000,-0.311000,0.220000,1.366000,-0.053000,2.885000,26.040000
0.037,-0.924000,-0.307000,0.218000,0.847000,0.115000,2.267000,26.130000
0.047,-0.919000,-0.309000,0.224000,-0.313000,0.427000,0.947000,26.040000
0.054,-0.916000,-0.311000,0.217000,-0.840000,0.534000,-0.229000,26.040000
0.066,-0.917000,-0.310000,0.212000,-0.328000,0.305000,0.725000,26.130000
0.073,-0.916000,-0.312000,0.216000,0.504000,-0.168000,1.260000,26.080000
0.086,-0.917000,-0.313000,0.214000,0.382000,0.550000,1.321000,26.080000
0.093,-0.911000,-0.313000,0.207000,-0.092000,0.695000,0.786000,26.080000
0.106,-0.917000,-0.317000,0.213000,-0.191000,0.260000,0.641000,26.130000
0.113,-0.916000,-0.322000,0.223000,0.168000,-0.366000,0.977000,26.040000
0.126,-0.914000,-0.315000,0.224000,0.214000,-0.061000,0.641000,26.040000
0.133,-0.910000,-0.316000,0.208000,0.183000,1.084000,0.664000,26.180000
0.145,-0.910000,-0.320000,0.219000,0.893000,0.435000,1.534000,26.080000
0.152,-0.910000,-0.320000,0.223000,0.985000,-0.542000,2.489000,26.080000
0.165,-0.913000,-0.313000,0.220000,0.290000,0.321000,1.542000,26.080000
0.172,-0.917000,-0.316000,0.226000,-0.267000,0.664000,1.122000,26.040000
0.185,-0.913000,-0.316000,0.221000,-0.183000,0.748000,1.412000,26.130000
0.190,-0.918000,-0.307000,0.221000,0.679000,-0.244000,2.611000,26.040000
0.204,-0.922000,-0.309000,0.209000,0.992000,-0.328000,2.534000,26.080000
0.217,-0.917000,-0.305000,0.214000,0.015000,1.214000,0.954000,26.080000
0.225,-0.923000,-0.307000,0.211000,-0.023000,0.832000,0.687000,26.080000
0.237,-0.915000,-0.308000,0.210000,0.443000,-0.298000,1.557000,26.080000
0.244,-0.917000,-0.304000,0.216000,0.099000,0.015000,1.015000,26.040000
0.256,-0.926000,-0.310000,0.215000,-0.366000,0.573000,0.427000,26.040000
0.263,-0.920000,-0.313000,0.213000,-0.031000,0.771000,0.847000,26.040000
0.276,-0.916000,-0.321000,0.220000,0.916000,-0.168000,1.870000,25.990000
0.283,-0.916000,-0.311000,0.229000,1.107000,-0.206000,2.374000,26.080000
0.296,-0.915000,-0.307000,0.230000,0.038000,0.473000,1.412000,26.080000
0.303,-0.916000,-0.307000,0.222000,-0.565000,0.542000,0.565000,26.080000
0.317,-0.907000,-0.310000,0.225000,0.069000,0.000000,1.084000,26.040000
0.324,-0.912000,-0.313000,0.219000,0.168000,0.084000,1.366000,26.130000
0.335,-0.907000,-0.316000,0.225000,0.038000,0.710000,0.855000,26.040000
0.342,-0.911000,-0.322000,0.214000,0.000000,0.847000,0.679000,25.940000
0.356,-0.912000,-0.323000,0.214000,0.427000,0.527000,1.252000,26.130000
0.363,-0.915000,-0.323000,0.214000,0.351000,0.160000,1.954000,26.080000
0.375,-0.917000,-0.310000,0.220000,0.344000,0.053000,2.137000,26.080000
0.382,-0.915000,-0.314000,0.211000,0.351000,0.466000,2.031000,26.040000
0.395,-0.918000,-0.312000,0.213000,0.756000,0.168000,2.221000,26.040000
0.403,-0.923000,-0.309000,0.216000,0.855000,0.176000,2.122000,26.040000
0.416,-0.926000,-0.302000,0.216000,0.489000,0.176000,1.664000,26.130000
0.420,-0.925000,-0.306000,0.212000,-0.053000,0.374000,0.618000,26.080000
0.434,-0.922000,-0.307000,0.215000,-0.198000,0.344000,0.634000,26.180000
0.447,-0.919000,-0.306000,0.214000,-0.244000,0.221000,0.603000,26.080000
0.455,-0.911000,-0.316000,0.219000,-0.023000,0.336000,0.695000,26.040000
0.467,-0.915000,-0.315000,0.222000,-0.069000,0.603000,0.557000,26.040000
0.475,-0.910000,-0.315000,0.210000,0.168000,0.641000,0.542000,26.040000
0.486,-0.908000,-0.317000,0.214000,0.397000,0.145000,1.435000,26.040000
0.493,-0.913000,-0.316000,0.209000,0.748000,-0.344000,1.931000,25.990000
0.506,-0.918000,-0.309000,0.223000,0.206000,0.611000,1.443000,26.080000
0.514,-0.914000,-0.312000,0.219000,-0.061000,0.779000,0.863000,26.180000
0.526,-0.912000,-0.315000,0.220000,0.092000,0.267000,1.420000,26.040000
0.533,-0.912000,-0.318000,0.218000,0.458000,-0.046000,1.603000,26.040000
0.545,-0.923000,-0.316000,0.216000,0.229000,0.321000,1.611000,26.130000
0.554,-0.916000,-0.308000,0.205000,0.405000,0.427000,1.351000,26.130000
0.566,-0.918000,-0.312000,0.223000,0.779000,0.305000,2.076000,25.990000
0.573,-0.912000,-0.306000,0.211000,0.427000,0.443000,1.985000,26.080000
0.585,-0.904000,-0.296000,0.223000,-0.214000,0.901000,1.107000,26.080000
0.592,-0.924000,-0.311000,0.218000,0.290000,-0.611000,1.748000,26.130000
0.606,-0.917000,-0.306000,0.218000,0.504000,0.504000,1.740000,26.040000
0.613,-0.911000,-0.306000,0.219000,0.466000,0.954000,0.641000,26.040000
0.625,-0.918000,-0.298000,0.215000,0.229000,0.786000,1.603000,26.130000
0.632,-0.913000,-0.305000,0.221000,0.000000,0.458000,1.092000,26.040000
0.644,-0.920000,-0.312000,0.216000,0.298000,0.092000,0.840000,26.080000
0.657,-0.918000,-0.309000,0.215000,-0.351000,0.450000,1.046000,26.080000
0.669,-0.911000,-0.314000,0.221000,-0.244000,0.748000,0.702000,26.130000
0.677,-0.916000,-0.322000,0.208000,0.550000,0.198000,1.321000,26.130000
0.684,-0.915000,-0.315000,0.215000,0.550000,0.107000,1.962000,26.130000
0.697,-0.917000,-0.315000,0.211000,0.244000,-0.160000,0.779000,26.040000
0.704,-0.917000,-0.316000,0.222000,-0.160000,0.832000,1.504000,26.080000
0.717,-0.920000,-0.317000,0.216000,0.336000,0.038000,1.550000,26.080000
0.724,-0.918000,-0.312000,0.212000,0.397000,0.183000,1.634000,26.080000
0.736,-0.912000,-0.313000,0.221000,0.198000,0.336000,1.076000,26.040000
0.743,-0.913000,-0.308000,0.220000,0.214000,0.137000,1.115000,26.040000
0.756,-0.918000,-0.311000,0.211000,0.634000,0.092000,1.282000,26.130000
0.765,-0.921000,-0.317000,0.222000,0.344000,0.450000,1.137000,26.040000
0.776,-0.917000,-0.314000,0.212000,0.076000,0.695000,0.893000,25.990000
0.783,-0.906000,-0.317000,0.214000,-0.298000,0.321000,1.389000,26.080000
0.795,-0.916000,-0.320000,0.215000,-0.168000,0.099000,1.023000,26.080000
0.803,-0.913000,-0.315000,0.224000,0.099000,0.321000,1.198000,26.080000
0.816,-0.917000,-0.316000,0.224000,0.473000,0.023000,1.557000,26.130000
0.823,-0.922000,-0.310000,0.209000,0.855000,0.679000,2.260000,26.040000
0.835,-0.921000,-0.308000,0.213000,1.137000,-0.298000,2.595000,26.040000
0.842,-0.923000,-0.299000,0.214000,0.023000,0.664000,1.519000,26.080000
0.856,-0.924000,-0.309000,0.211000,-0.344000,0.809000,-0.198000,26.080000
0.862,-0.913000,-0.314000,0.211000,-0.221000,0.565000,0.069000,26.180000
0.875,-0.903000,-0.290000,0.233000,1.122000,-2.603000,6.603000,25.990000
0.887,-0.925000,-0.278000,0.223000,-0.023000,3.511000,-0.008000,26.040000
0.894,-0.938000,-0.318000,0.220000,-0.740000,2.069000,-1.130000,26.040000
0.906,-0.911000,-0.305000,0.207000,1.260000,-1.687000,-1.344000,26.130000
0.915,-0.909000,-0.317000,0.224000,0.893000,-0.618000,2.206000,26.130000
0.926,-0.918000,-0.310000,0.212000,0.832000,0.962000,2.649000,26.130000
0.933,-0.908000,-0.303000,0.216000,-1.206000,4.351000,-3.527000,26.080000
0.945,-0.933000,-0.347000,0.208000,-1.565000,-1.939000,-0.924000,26.080000
0.953,-0.906000,-0.327000,0.215000,-0.496000,-2.145000,0.542000,26.130000
0.966,-0.916000,-0.333000,0.204000,-0.863000,2.763000,0.130000,26.130000
0.973,-0.910000,-0.336000,0.203000,1.450000,1.023000,1.672000,26.040000
0.985,-0.919000,-0.334000,0.214000,3.504000,-1.931000,6.344000,25.990000
0.992,-0.918000,-0.306000,0.231000,1.366000,-1.298000,4.282000,25.990000
1.005,-0.922000,-0.302000,0.243000,-2.702000,1.672000,-1.160000,25.990000
1.017,-0.920000,-0.310000,0.216000,-2.076000,1.611000,-0.870000,26.080000
1.024,-0.920000,-0.326000,0.221000,3.611000,-3.031000,3.328000,25.940000
1.036,-0.925000,-0.310000,0.228000,4.069000,-0.504000,5.924000,26.040000
1.044,-0.912000,-0.289000,0.227000,0.412000,3.053000,1.420000,26.130000
1.056,-0.929000,-0.302000,0.216000,-0.305000,0.634000,1.527000,26.080000
1.065,-0.926000,-0.292000,0.215000,0.504000,-2.550000,1.748000,26.080000
1.076,-0.920000,-0.298000,0.212000,-1.969000,0.863000,-2.031000,26.080000
1.083,-0.925000,-0.315000,0.218000,-2.481000,1.702000,-1.649000,26.080000
1.095,-0.899000,-0.312000,0.202000,0.206000,1.008000,0.344000,26.130000
1.103,-0.920000,-0.323000,0.202000,2.695000,-1.725000,3.168000,26.040000
1.116,-0.914000,-0.308000,0.221000,0.580000,0.237000,1.344000,26.130000
1.124,-0.901000,-0.303000,0.225000,-2.206000,0.878000,1.183000,26.040000
1.135,-0.926000,-0.304000,0.210000,-1.092000,1.000000,0.031000,25.990000
1.142,-0.933000,-0.338000,0.229000,2.023000,-2.580000,1.275000,26.080000
1.156,-0.891000,-0.306000,0.225000,-0.061000,1.412000,-1.321000,26.180000
1.167,-0.918000,-0.331000,0.233000,1.160000,-0.115000,4.313000,26.080000
1.175,-0.909000,-0.302000,0.215000,1.786000,1.611000,3.580000,26.040000
1.187,-0.922000,-0.307000,0.246000,-0.015000,-0.168000,1.664000,26.040000
1.194,-0.921000,-0.294000,0.208000,-1.336000,0.053000,-1.405000,26.130000
1.206,-0.906000,-0.320000,0.224000,-1.542000,0.481000,0.321000,26.130000
1.215,-0.914000,-0.311000,0.206000,0.580000,1.099000,0.885000,26.040000
1.226,-0.911000,-0.318000,0.206000,1.901000,0.969000,2.527000,26.080000
1.233,-0.923000,-0.318000,0.210000,1.863000,-0.519000,4.107000,26.080000
1.246,-0.922000,-0.303000,0.223000,-0.305000,0.489000,1.137000,26.040000
1.253,-0.917000,-0.301000,0.219000,-2.901000,1.275000,-1.107000,25.940000
1.266,-0.922000,-0.316000,0.207000,-0.595000,-0.397000,-0.481000,26.130000
1.273,-0.922000,-0.318000,0.210000,1.649000,-0.420000,3.351000,26.130000
1.285,-0.923000,-0.307000,0.222000,2.443000,-0.053000,2.786000,26.080000
1.292,-0.920000,-0.305000,0.224000,0.702000,1.832000,1.794000,25.990000
1.306,-0.914000,-0.314000,0.225000,0.183000,0.107000,0.817000,26.180000
1.311,-0.922000,-0.314000,0.234000,0.130000,-1.557000,1.336000,26.040000
1.325,-0.908000,-0.305000,0.234000,-1.504000,0.672000,-0.458000,26.040000
1.337,-0.915000,-0.312000,0.230000,-1.603000,1.595000,-0.794000,26.040000
1.344,-0.912000,-0.323000,0.207000,0.718000,0.412000,1.000000,26.130000
1.357,-0.917000,-0.329000,0.213000,2.153000,-0.389000,2.466000,26.080000
1.365,-0.915000,-0.316000,0.215000,0.771000,0.901000,1.664000,26.080000
1.376,-0.914000,-0.313000,0.204000,-0.931000,1.237000,1.061000,26.080000
1.383,-0.926000,-0.315000,0.208000,-0.763000,-0.168000,0.947000,26.080000
1.396,-0.919000,-0.317000,0.209000,-0.191000,-0.710000,1.183000,26.130000
1.403,-0.911000,-0.316000,0.214000,-0.191000,0.405000,1.328000,26.040000
1.416,-0.914000,-0.321000,0.210000,0.573000,0.931000,1.840000,26.040000
1.424,-0.916000,-0.315000,0.206000,2.115000,-0.252000,3.580000,26.080000
1.435,-0.917000,-0.307000,0.214000,2.038000,-0.840000,3.015000,26.080000
1.442,-0.909000,-0.303000,0.223000,-0.122000,0.756000,1.748000,26.080000
1.456,-0.919000,-0.300000,0.231000,-1.061000,0.710000,0.748000,26.180000
1.460,-0.914000,-0.301000,0.232000,-0.481000,-0.031000,0.878000,26.130000
1.475,-0.915000,-0.301000,0.228000,0.435000,0.145000,0.656000,26.040000
1.487,-0.910000,-0.305000,0.223000,0.412000,1.198000,0.672000,26.040000
1.494,-0.910000,-0.307000,0.211000,0.710000,1.107000,1.237000,26.130000
1.507,-0.919000,-0.312000,0.207000,0.847000,-0.321000,1.405000,26.040000
1.515,-0.919000,-0.312000,0.212000,-0.397000,0.298000,0.496000,26.080000
1.526,-0.850000,-0.620000,-0.094000,203.611000,-211.878000,250.130000,26.080000
1.532,-1.386000,-0.293000,0.060000,89.748000,-180.107000,-16.496000,26.040000
1.545,-0.845000,-0.284000,0.389000,26.802000,-125.893000,-50.992000,26.040000
1.557,-0.853000,-0.292000,0.362000,14.649000,-103.840000,17.130000,26.130000
1.564,-0.963000,-0.183000,0.395000,51.947000,-54.840000,70.305000,26.130000
1.576,-0.890000,-0.215000,0.468000,32.611000,-25.458000,65.244000,25.990000
1.583,-0.951000,-0.160000,0.471000,16.198000,-9.863000,58.542000,26.080000
1.595,-0.882000,-0.193000,0.425000,-1.168000,15.244000,56.443000,26.080000
1.603,-0.793000,-0.249000,0.427000,-26.725000,48.198000,100.603000,26.080000
1.614,-0.807000,-0.258000,0.331000,-11.427000,106.771000,154.481000,26.130000
1.627,-0.877000,-0.602000,0.584000,36.634000,129.290000,48.260000,26.040000
1.633,-0.966000,-0.237000,0.576000,39.466000,112.450000,21.427000,26.040000
1.646,-0.923000,-0.094000,0.555000,58.053000,61.237000,-0.023000,26.180000
1.653,-1.122000,0.231000,-0.002000,-83.053000,-15.863000,-38.786000,25.990000
1.664,-0.906000,-0.141000,0.335000,-82.931000,-20.725000,-51.733000,25.990000
1.677,-0.803000,0.002000,0.486000,-50.962000,-29.473000,-30.580000,26.180000
1.684,-0.919000,-0.138000,0.183000,-11.588000,-18.176000,4.168000,26.130000
1.696,-0.986000,-0.189000,0.251000,-14.748000,4.122000,27.260000,26.130000
1.704,-0.938000,-0.123000,0.276000,-16.611000,7.389000,32.718000,26.130000
1.715,-0.899000,-0.172000,0.201000,-17.298000,0.580000,33.244000,26.080000
1.723,-0.859000,-0.242000,0.312000,2.985000,-12.901000,35.412000,26.080000
1.734,-0.909000,-0.279000,0.250000,13.656000,-17.847000,30.099000,26.080000
1.747,-0.981000,-0.230000,0.246000,12.809000,-24.427000,18.626000,26.180000
1.755,-1.016000,-0.227000,0.280000,11.412000,-30.053000,-2.366000,26.040000
1.766,-0.907000,-0.202000,0.287000,-20.695000,-24.954000,10.321000,26.130000
1.774,-0.984000,-0.174000,0.214000,-26.191000,-20.939000,1.893000,26.130000
1.785,-1.055000,-0.077000,0.181000,-42.687000,0.061000,-29.710000,26.040000
1.792,-1.050000,-0.143000,0.183000,-87.710000,20.748000,-64.656000,26.040000
1.804,-0.852000,-0.366000,0.271000,-118.176000,-25.794000,-104.397000,26.180000
1.816,-0.758000,-0.292000,0.488000,-90.351000,-40.420000,-31.145000,25.990000
1.823,-0.693000,-0.312000,0.456000,-48.954000,-45.366000,-9.221000,26.040000
1.835,-0.929000,-0.178000,0.412000,-21.794000,-23.137000,-0.939000,26.040000
1.847,-1.000000,-0.100000,0.265000,-35.534000,14.313000,-34.969000,26.040000
1.855,-0.037000,-0.454000,0.382000,-33.061000,28.313000,117.145000,26.130000
1.866,-1.092000,-0.514000,0.095000,-92.321000,-58.420000,59.771000,26.080000
1.874,-0.908000,-0.339000,0.252000,-88.252000,-7.023000,4.687000,26.080000
1.885,-0.856000,-0.225000,0.280000,-79.160000,5.107000,13.145000,26.080000
1.892,-0.869000,-0.222000,0.185000,-23.038000,15.137000,80.153000,26.040000
1.905,-0.833000,-0.456000,0.256000,-26.206000,3.366000,28.420000,26.130000
1.917,-0.798000,-0.002000,0.115000,-32.725000,20.252000,77.504000,26.130000
1.925,-0.860000,-0.271000,0.214000,22.481000,9.069000,46.901000,26.130000
1.937,-1.010000,-0.120000,0.337000,6.031000,-6.878000,52.290000,26.080000
1.945,-1.122000,0.426000,0.115000,-39.176000,25.176000,153.504000,25.990000
1.957,-0.846000,-0.425000,0.356000,-25.565000,60.802000,118.489000,26.080000
1.964,-1.018000,-0.349000,0.281000,-36.351000,80.412000,71.908000,26.220000
1.975,-0.985000,-0.367000,0.388000,-16.710000,-3.664000,38.672000,26.130000
1.987,-0.851000,-0.191000,0.191000,-2.550000,-29.176000,53.962000,26.040000
1.994,-1.259000,0.095000,0.533000,6.687000,-23.679000,154.328000,26.130000
2.007,-0.974000,-0.714000,0.217000,51.427000,-8.733000,190.969000,26.080000
2.014,-0.997000,-0.002000,0.306000,61.473000,31.611000,202.061000,26.080000
2.026,-1.319000,0.298000,0.160000,7.725000,-42.947000,98.924000,26.180000
2.032,-1.035000,0.175000,0.145000,-4.863000,-1.412000,66.794000,26.080000
2.045,-0.934000,-0.071000,0.317000,9.443000,-20.137000,0.992000,26.130000
2.053,-0.952000,-0.020000,0.303000,5.542000,-21.466000,0.374000,26.130000
2.065,-0.944000,-0.008000,0.291000,8.603000,-24.489000,-0.481000,26.130000
2.077,-0.945000,0.000000,0.309000,10.962000,-24.710000,-1.733000,26.130000
2.084,-0.938000,-0.001000,0.321000,8.786000,-23.221000,-0.282000,25.990000
2.096,-0.906000,0.009000,0.408000,-55.664000,3.931000,34.458000,26.180000
2.103,-0.734000,0.383000,0.781000,-105.878000,-11.618000,82.565000,26.080000
2.116,-0.841000,0.029000,0.443000,-139.183000,-47.290000,56.496000,26.130000
2.123,-0.904000,0.343000,0.349000,-152.580000,-48.061000,59.916000,26.130000
2.134,-1.045000,0.353000,0.109000,-71.832000,-18.107000,28.000000,26.130000
2.146,-0.969000,-0.057000,0.370000,-65.573000,16.534000,29.206000,26.080000
2.153,-1.005000,0.297000,0.384000,-16.183000,-5.695000,39.206000,26.180000
2.166,-0.946000,0.271000,0.263000,20.366000,-33.336000,39.466000,26.080000
2.174,-0.950000,0.121000,0.432000,14.756000,-46.756000,49.481000,26.080000
2.185,-0.915000,-0.083000,0.262000,40.168000,-16.641000,-1.321000,26.130000
2.192,0.656000,-1.128000,0.193000,-52.382000,24.351000,-250.137000,26.040000
2.205,-1.003000,0.522000,0.385000,118.748000,-30.267000,-45.710000,26.130000
2.216,-0.897000,-0.367000,0.393000,107.214000,48.901000,-42.794000,26.080000
2.224,-0.860000,-0.519000,0.522000,105.725000,87.489000,-41.954000,26.080000
2.235,-0.980000,0.553000,0.095000,7.824000,45.557000,-8.069000,26.080000
2.242,-1.001000,0.215000,0.193000,-16.107000,40.153000,-42.298000,26.040000
2.255,-0.957000,-0.014000,0.399000,-17.168000,25.534000,-37.863000,26.130000
2.267,-0.930000,0.069000,0.235000,-30.298000,16.565000,-7.244000,26.040000
2.274,-1.057000,0.052000,0.183000,-36.603000,-18.145000,9.618000,26.130000
2.286,-0.913000,0.051000,0.448000,-26.588000,-19.855000,13.397000,26.180000
2.293,-1.030000,-0.112000,0.171000,-41.145000,-5.779000,3.786000,26.080000
2.307,-0.955000,-0.044000,0.322000,-68.145000,-41.550000,-23.580000,26.080000
2.312,-0.770000,0.052000,0.253000,-63.053000,-53.527000,29.771000,26.080000
2.325,-0.904000,-0.009000,0.354000,-75.656000,-35.656000,0.771000,26.130000
2.336,-1.029000,-0.056000,0.391000,-128.183000,-57.580000,-70.595000,26.130000
2.343,-0.928000,-0.048000,0.392000,-147.885000,-41.718000,-91.298000,26.130000
2.356,-0.854000,-0.127000,0.362000,-121.290000,18.160000,-69.145000,26.040000
2.362,-1.083000,-0.424000,0.208000,-125.580000,52.771000,-102.511000,26.080000
2.374,-1.009000,-0.282000,0.329000,-147.008000,56.786000,-162.534000,26.180000
2.386,-1.039000,-0.324000,0.257000,-137.061000,86.710000,-214.481000,26.180000
2.393,-1.214000,-0.269000,0.254000,-174.015000,55.534000,-223.779000,26.130000
2.406,-1.250000,-0.355000,0.401000,-157.336000,16.603000,-191.397000,26.130000
2.417,-1.048000,-0.322000,0.440000,-104.580000,0.122000,-120.954000,26.130000
2.424,-0.993000,-0.370000,0.342000,-72.221000,-0.389000,-66.710000,25.990000
2.435,-0.940000,-0.417000,0.255000,-70.832000,-23.305000,-41.130000,26.180000
2.442,-0.831000,-0.479000,0.155000,-31.389000,-28.069000,-46.954000,26.180000
2.456,-0.901000,-0.534000,0.247000,-34.832000,-9.115000,-70.183000,25.990000
2.466,-0.917000,-0.303000,0.229000,-30.405000,13.794000,-110.374000,26.130000
2.474,-0.934000,-0.316000,0.229000,-13.557000,3.687000,-61.122000,26.130000
2.486,-0.872000,-0.472000,0.365000,-48.198000,17.702000,-90.687000,26.040000
2.492,-0.861000,-0.464000,0.368000,-50.260000,2.832000,-95.122000,26.180000
2.506,-1.020000,-0.192000,0.236000,-34.229000,6.275000,-65.290000,26.080000
2.518,-0.834000,-0.583000,0.109000,-22.328000,-24.244000,-33.786000,26.080000
2.525,-0.801000,-0.311000,0.094000,-31.031000,-25.802000,-54.405000,26.080000
2.536,-0.784000,-0.402000,0.165000,-34.878000,2.061000,-14.977000,26.130000
2.543,-0.645000,-0.609000,0.269000,11.840000,-15.840000,-109.870000,26.130000
2.555,-0.917000,-0.222000,0.273000,0.763000,15.313000,-23.634000,26.130000
2.567,-0.885000,-1.265000,0.637000,-18.595000,-65.252000,-183.092000,26.080000
2.575,-0.849000,-0.799000,0.170000,11.435000,-43.824000,-180.748000,26.180000
2.586,-1.093000,-0.605000,0.209000,14.595000,-34.076000,-115.000000,26.180000
2.593,0.258000,1.223000,0.115000,12.992000,-64.962000,-17.267000,26.080000
2.605,-0.491000,-0.359000,-0.236000,30.466000,-56.725000,-205.504000,26.040000
2.617,-0.763000,-0.193000,0.131000,30.481000,-39.191000,-190.458000,26.130000
2.624,-0.355000,-0.991000,0.251000,108.649000,-73.664000,-250.137000,26.040000
2.636,-0.517000,-0.535000,0.203000,107.275000,-85.702000,-250.137000,26.130000
2.642,-0.703000,-0.326000,0.349000,64.000000,-34.389000,-184.168000,26.130000
2.656,-0.700000,-0.546000,0.366000,73.595000,-30.153000,-44.397000,26.080000
2.667,-0.626000,-0.650000,0.472000,76.672000,-64.565000,-18.649000,26.080000
2.674,-0.535000,-0.690000,0.366000,78.321000,-46.115000,7.740000,26.040000
2.686,-0.597000,-0.766000,0.186000,85.137000,-14.405000,-0.282000,26.130000
2.693,-0.444000,-0.576000,0.329000,76.015000,23.565000,-11.069000,26.130000
2.705,-0.508000,-0.608000,0.285000,86.840000,64.519000,-48.198000,26.130000
2.713,-0.561000,-0.680000,0.350000,55.679000,46.008000,-88.840000,26.080000
2.725,-0.592000,-0.666000,0.362000,17.519000,32.710000,-112.046000,26.080000
2.736,-0.645000,-0.650000,0.441000,5.351000,16.153000,-92.992000,26.180000
2.743,-0.775000,-0.618000,0.557000,11.153000,-36.267000,-42.771000,26.130000
2.756,-0.716000,-0.626000,0.564000,43.603000,-67.099000,7.237000,26.130000
2.765,-0.818000,-0.599000,0.612000,68.916000,-107.626000,79.740000,26.040000
2.775,-0.739000,-0.593000,0.635000,94.557000,-125.168000,179.840000,26.130000
2.786,-0.487000,-1.273000,0.808000,250.130000,-102.084000,224.260000,26.180000
2.793,0.001000,-0.759000,0.503000,248.321000,-26.748000,232.145000,26.080000
2.806,-0.752000,-0.439000,0.590000,125.473000,-26.702000,139.115000,26.180000
2.813,-0.371000,-0.138000,0.356000,8.534000,-39.099000,76.168000,26.040000
2.825,-0.290000,-0.694000,0.580000,-27.527000,-13.267000,-9.473000,26.040000
2.837,-0.653000,-0.519000,0.646000,-17.450000,-4.084000,-51.542000,26.130000
2.843,-0.642000,-0.548000,0.620000,-12.206000,-15.275000,-31.710000,26.040000
2.856,-0.737000,-0.538000,0.578000,6.023000,-47.183000,18.527000,26.180000
2.863,-0.546000,-0.623000,0.430000,-11.145000,-36.382000,32.046000,26.080000
2.875,-0.528000,-0.569000,0.597000,-8.237000,-24.840000,35.206000,26.180000
2.882,-0.481000,-0.627000,0.526000,-0.878000,-42.008000,15.176000,26.180000
2.894,-0.475000,-0.586000,0.522000,-1.969000,-41.618000,-10.137000,26.130000
2.907,-0.556000,-0.573000,0.598000,-0.878000,-35.206000,-26.855000,26.130000
2.914,-0.588000,-0.478000,0.657000,7.603000,-36.878000,-23.443000,26.130000
2.926,-0.583000,-0.428000,0.752000,14.427000,-32.969000,-12.015000,26.130000
2.932,-0.655000,-0.420000,0.780000,20.115000,-37.656000,-4.924000,26.220000
2.944,0.035000,-0.646000,0.557000,-40.412000,0.695000,-103.427000,26.180000
2.957,-0.891000,-0.707000,0.927000,-48.992000,-38.595000,-96.863000,26.080000
2.963,-0.660000,-0.698000,0.592000,-26.672000,-39.298000,-52.168000,26.130000
2.978,-0.544000,-0.728000,0.521000,-9.756000,-10.771000,-54.122000,26.130000
2.982,-0.563000,-0.705000,0.474000,7.885000,-10.824000,-38.550000,26.130000
2.994,-0.560000,-0.752000,0.456000,16.008000,-35.962000,-59.870000,26.180000
3.007,-0.545000,-0.716000,0.448000,34.542000,-41.031000,-75.031000,26.080000
3.014,-0.548000,-0.777000,0.563000,65.412000,-71.656000,-56.015000,26.180000
3.027,-0.484000,-0.613000,0.564000,72.802000,-50.947000,-60.771000,26.180000
3.032,-0.519000,-0.653000,0.714000,81.252000,-31.214000,-75.305000,26.130000
3.045,-0.560000,-0.497000,0.763000,82.466000,-59.084000,-81.351000,26.130000
3.057,-0.483000,-0.675000,0.563000,95.221000,-64.137000,-107.603000,26.130000
3.064,-0.329000,-0.583000,0.551000,118.565000,-57.305000,-117.832000,26.130000
3.076,-0.539000,-0.643000,0.437000,89.595000,-58.603000,-145.649000,26.080000
3.082,-0.531000,-0.879000,0.381000,93.588000,-21.740000,-146.504000,26.080000
3.094,-0.508000,-0.500000,0.539000,106.588000,-5.710000,-95.893000,26.080000
3.107,-0.380000,-0.873000,0.469000,99.168000,-13.130000,-146.061000,26.080000
3.114,-0.413000,-0.312000,0.685000,117.542000,5.763000,-168.656000,26.130000
3.126,-0.327000,-0.154000,0.485000,74.992000,51.229000,-139.679000,26.130000
3.132,-0.292000,-0.391000,0.725000,30.305000,40.244000,-167.473000,26.220000
3.144,-0.275000,-0.366000,0.785000,-12.542000,72.313000,-175.985000,26.080000
3.157,-0.315000,-0.389000,0.946000,33.519000,11.099000,-112.809000,26.180000
3.164,-0.311000,-0.615000,0.725000,53.328000,-13.305000,-137.962000,26.080000
3.176,-0.275000,-0.580000,0.692000,82.496000,-17.626000,-120.550000,26.080000
3.182,-0.160000,-0.362000,0.798000,70.725000,-20.702000,-87.802000,26.130000
3.194,-0.179000,-0.364000,0.747000,28.168000,-14.626000,-84.107000,26.130000
3.207,-0.227000,-0.557000,0.685000,-25.023000,-5.534000,-76.573000,26.130000
3.215,-0.210000,-0.550000,0.646000,-28.611000,-16.458000,-79.763000,26.130000
3.226,-0.135000,-0.599000,0.607000,-45.267000,-21.496000,-96.389000,26.080000
3.232,-0.241000,-0.665000,0.607000,-32.855000,-44.298000,-130.336000,26.180000
3.244,-0.252000,-0.642000,0.659000,-27.901000,-54.153000,-129.061000,26.130000
3.257,-0.136000,-0.540000,0.750000,0.817000,-52.794000,-99.985000,26.130000
3.264,-0.087000,-0.836000,0.825000,81.954000,-86.458000,-90.992000,26.040000
3.276,0.052000,-0.578000,0.903000,104.244000,-76.267000,-67.802000,26.130000
3.282,0.090000,-0.437000,0.792000,140.351000,-75.031000,-100.809000,26.180000
3.294,-0.044000,-0.684000,0.803000,102.183000,-51.260000,-83.336000,26.080000
3.307,0.042000,-0.823000,1.047000,56.084000,-66.168000,-74.137000,26.180000
3.313,-0.012000,-0.468000,0.856000,-17.534000,-18.397000,-59.756000,26.130000
3.326,0.064000,-0.718000,0.778000,-26.092000,4.649000,-38.267000,26.130000
3.333,0.087000,-0.515000,0.746000,-9.214000,-8.069000,-61.374000,26.130000
3.345,0.042000,-0.565000,0.750000,-2.695000,-21.916000,-98.435000,26.130000
3.357,0.021000,-0.481000,0.766000,24.771000,-29.947000,-121.328000,26.180000
3.365,-0.076000,-0.680000,0.775000,41.664000,-34.580000,-76.122000,26.080000
3.376,0.086000,-0.594000,0.780000,64.267000,-17.336000,-77.221000,26.080000
3.383,0.209000,-0.513000,0.704000,119.710000,-33.771000,-93.748000,26.130000
3.395,0.444000,-0.437000,0.809000,144.298000,-9.321000,-110.000000,26.220000
3.403,0.203000,-0.524000,0.843000,202.412000,-70.176000,-184.511000,26.220000
3.415,0.342000,-0.461000,0.753000,179.389000,-70.473000,-164.939000,26.130000
3.426,0.140000,-0.438000,0.963000,129.366000,-89.252000,-115.069000,26.180000
3.433,0.185000,-0.255000,0.962000,75.458000,-78.901000,-76.122000,26.180000
3.445,0.184000,-0.289000,0.884000,21.992000,-55.321000,-38.550000,26.180000
3.453,0.201000,-0.474000,0.892000,48.176000,-23.313000,-27.084000,26.220000
3.465,0.214000,-0.420000,0.878000,98.710000,-13.855000,-14.382000,26.130000
3.477,0.204000,-0.230000,0.899000,78.351000,20.870000,19.107000,26.130000
3.484,0.099000,-0.187000,0.712000,130.893000,-18.000000,18.855000,26.220000
3.496,-0.071000,-0.424000,0.758000,129.695000,-13.046000,39.763000,26.130000
3.503,-0.257000,-0.231000,0.591000,201.053000,41.931000,59.702000,26.180000
3.515,0.219000,-0.195000,0.822000,166.366000,105.504000,56.046000,26.180000
3.521,0.074000,-0.210000,0.725000,236.107000,129.931000,102.832000,26.130000
3.534,0.026000,-0.059000,0.732000,230.260000,169.870000,76.908000,26.220000
3.546,-0.089000,-0.054000,0.747000,179.061000,177.626000,96.481000,26.130000
3.555,0.046000,0.043000,0.755000,146.313000,183.427000,105.038000,26.180000
3.566,-0.003000,0.038000,0.779000,95.794000,143.229000,96.198000,26.270000
3.573,-0.151000,0.056000,0.906000,97.794000,118.817000,73.038000,26.270000
3.585,-0.117000,0.064000,0.923000,83.450000,121.809000,48.359000,26.180000
3.597,-0.075000,-0.002000,0.892000,113.817000,114.489000,49.023000,26.220000
3.605,-0.121000,0.031000,0.817000,110.046000,91.267000,66.389000,26.220000
3.616,-0.184000,-0.011000,0.705000,73.481000,-6.206000,70.046000,26.130000
3.624,-0.252000,0.152000,0.708000,107.374000,-14.305000,43.237000,26.270000
3.635,-0.088000,0.235000,1.309000,160.229000,-9.176000,69.779000,26.180000
3.643,0.097000,0.276000,1.021000,10.122000,112.038000,32.382000,26.180000
3.656,0.116000,0.529000,1.092000,-29.481000,250.130000,-85.168000,26.180000
3.667,-0.088000,0.191000,0.948000,-91.450000,250.130000,-65.908000,26.220000
3.675,-0.537000,-0.031000,0.924000,-100.962000,250.130000,-122.038000,26.130000
3.687,-0.553000,-0.016000,0.922000,-127.573000,250.130000,-160.519000,26.130000
3.692,-0.479000,-0.030000,0.760000,-148.252000,250.130000,-216.206000,26.270000
3.707,-0.806000,-0.022000,0.940000,-130.221000,132.542000,-219.863000,26.180000
3.717,-0.632000,0.093000,0.936000,-106.145000,-33.939000,-172.298000,26.270000
3.723,-0.216000,0.654000,1.091000,-68.947000,-210.496000,14.695000,26.220000
3.735,-0.104000,-0.531000,0.944000,-55.099000,-147.794000,-71.885000,26.130000
3.747,-0.498000,-0.629000,0.341000,117.687000,-237.756000,109.244000,26.220000
3.754,0.127000,-0.110000,0.521000,-14.450000,-250.137000,53.504000,26.220000
3.767,-0.487000,-0.125000,0.920000,180.046000,-250.137000,250.130000,26.220000
3.774,-0.378000,0.283000,0.934000,97.931000,-250.137000,250.130000,26.180000
3.785,-0.117000,0.231000,0.948000,-19.763000,-74.557000,180.519000,26.080000
3.797,0.012000,-0.044000,0.923000,-22.412000,-22.534000,106.168000,26.220000
3.805,-0.249000,-0.046000,0.981000,19.359000,-1.618000,61.511000,26.220000
3.817,-0.151000,-0.026000,1.045000,21.931000,1.802000,39.618000,26.220000
3.824,-0.055000,-0.020000,0.907000,13.443000,-14.061000,34.496000,26.270000
3.835,-0.002000,-0.192000,0.920000,27.466000,-40.809000,41.588000,26.180000
3.842,-0.007000,-0.107000,0.930000,39.053000,-70.893000,58.122000,26.270000
3.855,-0.002000,-0.104000,1.094000,30.824000,-110.038000,70.626000,26.180000
3.867,0.001000,-0.078000,1.019000,35.176000,-111.344000,94.145000,26.220000
3.874,0.004000,0.013000,1.090000,20.336000,-81.298000,119.435000,26.320000
3.886,-0.011000,-0.070000,1.117000,-9.069000,-39.611000,140.351000,26.220000
3.893,-0.017000,-0.038000,0.990000,-21.046000,-11.863000,155.168000,26.270000
3.906,0.001000,-0.092000,0.939000,-16.634000,-0.771000,166.420000,26.180000
3.912,0.035000,-0.195000,1.271000,-5.779000,12.328000,151.168000,26.180000
3.925,-0.002000,-0.044000,0.990000,20.412000,37.084000,145.008000,26.220000
3.936,-0.012000,-0.164000,1.023000,42.870000,60.069000,146.290000,26.130000
3.943,-0.169000,-0.156000,0.936000,90.458000,88.573000,163.740000,26.220000
3.956,-0.185000,-0.218000,1.092000,124.328000,101.733000,128.046000,26.130000
3.963,-0.344000,0.431000,1.189000,98.626000,115.977000,31.336000,26.180000
3.976,-0.383000,0.249000,0.541000,140.130000,189.817000,-29.153000,26.270000
3.987,-0.303000,0.017000,2.000000,114.008000,132.237000,38.962000,26.080000
3.994,-0.202000,-0.222000,2.000000,111.145000,122.069000,54.580000,26.220000
4.007,-0.372000,0.397000,0.797000,28.847000,102.870000,74.511000,26.220000
4.015,-0.225000,0.145000,0.879000,77.588000,92.863000,146.916000,26.220000
4.026,0.207000,-0.031000,1.886000,144.573000,24.954000,211.458000,26.130000
4.032,-0.391000,0.312000,1.312000,86.115000,-58.679000,66.458000,26.130000
4.045,-0.225000,0.193000,1.050000,30.313000,-19.847000,-5.565000,26.270000
4.057,-0.144000,0.240000,1.190000,-9.275000,-43.282000,-5.397000,26.180000
4.065,-0.955000,0.286000,1.417000,-20.817000,-98.969000,-20.450000,26.220000
4.077,-2.000000,-0.478000,-0.875000,-0.382000,-250.137000,16.008000,26.220000
4.083,2.000000,0.874000,2.000000,-50.878000,-250.137000,-145.542000,26.220000
4.095,0.123000,0.113000,0.879000,-27.305000,-155.885000,32.947000,26.270000
4.103,-0.187000,0.227000,0.763000,23.641000,-55.618000,43.916000,26.270000
4.115,-0.125000,0.109000,1.047000,27.733000,-77.878000,116.145000,26.270000
4.127,-0.187000,0.094000,1.191000,36.458000,-93.382000,92.511000,26.180000
4.133,0.087000,0.116000,1.182000,57.153000,-143.198000,64.557000,26.220000
4.146,0.258000,0.310000,0.828000,73.534000,-145.038000,40.908000,26.220000
4.153,0.079000,0.337000,0.713000,53.687000,-109.160000,45.061000,26.220000
4.165,-0.002000,0.349000,0.743000,46.534000,-101.481000,78.634000,26.270000
4.173,-0.033000,0.316000,0.833000,32.458000,-79.794000,135.420000,26.180000
4.184,0.264000,0.330000,0.855000,10.611000,-28.832000,109.756000,26.180000
4.197,0.197000,0.238000,0.887000,10.611000,-13.809000,65.702000,26.270000
4.204,0.137000,0.211000,0.982000,20.015000,-12.214000,58.412000,26.220000
4.216,0.132000,0.246000,0.944000,31.198000,-2.252000,49.893000,26.320000
4.224,0.094000,0.249000,0.931000,36.595000,-3.786000,42.893000,26.320000
4.236,0.152000,0.175000,0.996000,42.977000,-15.878000,33.496000,26.270000
4.243,0.193000,0.194000,0.925000,46.046000,-26.137000,18.191000,26.270000
4.257,0.198000,0.233000,0.879000,44.458000,-33.931000,4.550000,26.370000
4.263,0.215000,0.267000,0.856000,43.237000,-33.443000,0.099000,26.220000
4.275,0.187000,0.309000,0.849000,41.603000,-20.656000,2.450000,26.220000
4.282,0.178000,0.310000,0.866000,38.115000,-16.031000,8.550000,26.320000
4.295,0.229000,0.285000,0.902000,38.672000,-15.359000,7.099000,26.220000
4.303,0.273000,0.255000,0.947000,36.313000,-17.679000,2.168000,26.220000
4.315,0.286000,0.269000,0.938000,31.962000,-14.786000,-3.466000,26.270000
4.328,0.277000,0.304000,0.935000,26.626000,-13.511000,-8.870000,26.370000
4.334,0.249000,0.322000,0.964000,13.344000,-12.473000,-10.588000,26.220000
4.346,0.249000,0.344000,0.997000,-4.038000,-3.427000,-2.817000,26.320000
4.355,0.263000,0.368000,1.028000,-9.740000,-7.748000,-5.870000,26.320000
4.366,0.261000,0.348000,1.050000,-9.870000,-19.649000,-13.344000,26.370000
4.373,0.270000,0.375000,1.026000,-9.229000,-26.519000,-24.214000,26.180000
4.385,0.273000,0.406000,0.989000,-11.679000,-30.939000,-31.885000,26.270000
4.392,0.281000,0.424000,0.982000,-13.527000,-24.725000,-33.893000,26.180000
4.408,0.290000,0.422000,1.023000,-16.069000,-20.771000,-32.908000,26.220000
4.418,0.248000,0.428000,1.063000,-18.473000,-11.656000,-29.603000,26.320000
4.424,0.228000,0.428000,1.174000,-17.885000,-17.611000,-25.481000,26.320000
4.436,0.241000,0.418000,1.210000,-15.313000,-23.565000,-23.824000,26.270000
4.442,0.241000,0.437000,1.164000,-15.748000,-24.511000,-20.534000,26.270000
4.455,0.229000,0.444000,1.116000,-17.038000,-29.840000,-20.481000,26.180000
4.467,0.208000,0.440000,1.086000,-17.252000,-33.107000,-19.534000,26.220000
4.474,0.202000,0.435000,1.100000,-16.794000,-37.069000,-12.908000,26.220000
4.486,0.265000,0.424000,1.029000,-13.061000,-34.763000,-12.542000,26.320000
4.493,0.325000,0.370000,1.019000,-1.519000,-16.542000,-9.550000,26.220000
4.507,0.295000,0.341000,1.060000,15.046000,-1.916000,-9.168000,26.270000
4.514,0.300000,0.354000,1.035000,27.244000,6.580000,-4.107000,26.180000
4.526,0.201000,0.230000,1.027000,-9.435000,8.992000,23.351000,26.370000
4.533,0.229000,0.487000,0.957000,-4.725000,3.626000,29.832000,26.320000
4.545,0.254000,0.408000,0.848000,-33.527000,4.786000,61.725000,26.320000
4.553,0.377000,0.370000,0.903000,-44.893000,31.397000,95.550000,26.320000
4.566,0.369000,0.424000,0.871000,-111.947000,34.763000,115.985000,26.220000
4.570,0.338000,0.231000,0.880000,-63.611000,17.664000,58.832000,26.180000
4.584,0.316000,0.285000,0.840000,-30.145000,-15.366000,25.939000,26.270000
4.596,0.328000,0.303000,0.844000,-27.557000,-45.756000,1.824000,26.220000
4.604,0.328000,0.295000,0.882000,-32.458000,-56.458000,4.389000,26.320000
4.617,0.396000,0.241000,0.865000,-27.756000,-49.679000,12.595000,26.320000
4.623,0.420000,0.208000,0.818000,-20.298000,-42.481000,9.206000,26.320000
4.635,0.423000,0.198000,0.858000,-19.046000,-42.947000,4.374000,26.270000
4.642,0.393000,0.200000,0.865000,-23.038000,-45.130000,-2.069000,26.270000
4.655,0.380000,0.181000,0.853000,-22.740000,-55.557000,-10.908000,26.270000
4.667,0.381000,0.189000,0.847000,-21.130000,-58.802000,-13.489000,26.220000
4.674,0.414000,0.096000,0.867000,-17.137000,-60.252000,-13.344000,26.220000
4.686,0.492000,0.057000,0.890000,-3.779000,-65.611000,-20.290000,26.320000
4.693,0.532000,0.118000,0.774000,-0.229000,-56.351000,-23.420000,26.320000
4.708,0.519000,0.143000,0.777000,0.786000,-40.840000,-17.855000,26.270000
4.715,0.493000,0.174000,0.833000,-3.267000,-25.656000,-7.328000,26.270000
4.726,0.459000,0.163000,0.867000,-6.130000,-28.710000,-3.595000,26.370000
4.734,0.449000,0.153000,0.868000,-6.313000,-35.489000,-3.466000,26.220000
4.744,0.489000,0.141000,0.840000,-10.137000,-34.557000,-0.336000,26.320000
4.757,0.528000,0.083000,0.806000,-11.168000,-30.275000,1.565000,26.220000
4.767,0.602000,0.039000,0.799000,-9.305000,-19.878000,1.473000,26.270000
4.777,0.615000,0.051000,0.795000,-6.290000,-9.412000,-2.092000,26.180000
4.784,0.516000,0.035000,0.886000,-1.664000,-19.840000,-15.603000,26.270000
4.796,0.494000,0.047000,0.988000,1.321000,-37.450000,-29.527000,26.220000
4.803,0.451000,0.093000,0.931000,-1.718000,-51.656000,-37.611000,26.220000
4.816,0.465000,0.077000,0.914000,-0.260000,-45.794000,-31.267000,26.410000
4.823,0.497000,0.125000,0.844000,9.916000,-22.626000,-21.954000,26.410000
4.835,0.483000,0.137000,0.831000,16.244000,-8.550000,-17.298000,26.320000
4.842,0.493000,0.129000,0.868000,21.084000,-7.748000,-15.359000,26.370000
4.854,0.465000,0.186000,0.875000,24.595000,-7.840000,-12.779000,26.370000
4.867,0.410000,0.211000,0.884000,21.122000,-15.977000,-8.908000,26.320000
4.874,0.418000,0.184000,0.919000,18.687000,-30.756000,-12.168000,26.220000
4.886,0.430000,0.182000,0.881000,18.298000,-40.321000,-17.069000,26.320000
4.893,0.443000,0.195000,0.836000,17.573000,-49.756000,-26.015000,26.220000
4.906,0.493000,0.216000,0.780000,16.725000,-48.244000,-30.618000,26.370000
4.916,0.510000,0.167000,0.767000,18.237000,-43.305000,-32.412000,26.270000
4.926,0.577000,0.167000,0.771000,24.061000,-27.664000,-24.519000,26.270000
4.932,0.552000,0.184000,0.782000,39.305000,-3.107000,-13.656000,26.320000
4.944,0.481000,0.220000,0.844000,52.382000,11.198000,-0.481000,26.410000
4.957,0.433000,0.267000,0.886000,58.840000,11.977000,12.748000,26.320000
4.965,0.418000,0.274000,0.876000,56.863000,7.847000,27.000000,26.270000
4.977,0.410000,0.273000,0.849000,59.702000,1.969000,38.153000,26.270000
4.984,0.426000,0.244000,0.781000,63.924000,-7.947000,40.870000,26.370000
4.996,0.477000,0.204000,0.729000,67.672000,-14.313000,39.260000,26.270000
5.003,0.492000,0.169000,0.664000,71.969000,-23.794000,30.031000,26.410000
5.016,0.532000,0.201000,0.610000,73.206000,-30.679000,17.840000,26.320000
5.023,0.552000,0.277000,0.532000,65.031000,-26.939000,9.794000,26.220000
5.036,0.536000,0.325000,0.502000,55.603000,-22.687000,5.969000,26.370000
5.043,0.562000,0.335000,0.485000,52.198000,-7.092000,9.405000,26.370000
5.057,0.535000,0.307000,0.546000,41.985000,-8.275000,4.664000,26.370000
5.063,0.567000,0.271000,0.601000,33.160000,-5.725000,0.076000,26.320000
5.075,0.578000,0.266000,0.595000,28.290000,-14.634000,-13.481000,26.320000
5.082,0.572000,0.288000,0.569000,24.412000,-10.130000,-21.405000,26.220000
5.094,0.557000,0.309000,0.523000,23.458000,-2.214000,-27.992000,26.320000
5.107,0.515000,0.330000,0.543000,20.122000,6.779000,-28.115000,26.320000
5.114,0.467000,0.330000,0.557000,15.450000,11.985000,-26.405000,26.270000
5.126,0.448000,0.340000,0.571000,12.687000,18.733000,-22.198000,26.270000
5.133,0.420000,0.345000,0.581000,13.427000,23.931000,-17.130000,26.320000
5.146,0.378000,0.344000,0.624000,15.534000,20.237000,-16.695000,26.320000
5.153,0.357000,0.332000,0.705000,18.198000,4.359000,-23.305000,26.320000
5.166,0.370000,0.336000,0.671000,18.771000,-4.336000,-26.450000,26.270000
5.173,0.373000,0.385000,0.646000,15.611000,-6.168000,-24.649000,26.370000
5.185,0.362000,0.374000,0.649000,12.359000,-6.832000,-20.542000,26.270000
5.192,0.367000,0.368000,0.666000,16.389000,-2.511000,-14.008000,26.320000
5.206,0.357000,0.386000,0.636000,20.076000,6.122000,-4.679000,26.410000
5.210,0.320000,0.395000,0.639000,22.641000,10.809000,2.611000,26.320000
5.225,0.332000,0.386000,0.655000,28.053000,11.710000,10.298000,26.320000
5.237,0.352000,0.399000,0.648000,31.046000,8.351000,18.427000,26.270000
5.244,0.358000,0.402000,0.624000,33.298000,0.221000,23.153000,26.370000
5.257,0.422000,0.365000,0.609000,36.740000,-8.099000,25.809000,26.370000
5.265,0.448000,0.361000,0.606000,34.924000,-15.282000,29.534000,26.320000
5.276,0.479000,0.328000,0.580000,34.420000,-19.298000,27.710000,26.410000
5.283,0.511000,0.320000,0.560000,33.611000,-15.267000,25.802000,26.410000
5.296,0.529000,0.318000,0.547000,31.733000,-11.023000,20.389000,26.370000
5.303,0.531000,0.329000,0.541000,28.748000,-9.000000,13.855000,26.370000
5.316,0.524000,0.322000,0.551000,28.328000,-8.122000,9.817000,26.370000
5.323,0.506000,0.344000,0.579000,29.534000,-7.420000,11.496000,26.410000
5.335,0.469000,0.365000,0.598000,30.084000,-15.359000,10.122000,26.410000
5.342,0.503000,0.375000,0.586000,33.229000,-16.076000,20.107000,26.320000
5.355,0.470000,0.365000,0.623000,32.779000,-25.931000,24.191000,26.320000
5.367,0.482000,0.351000,0.624000,28.634000,-36.084000,23.290000,26.410000
5.375,0.497000,0.355000,0.600000,23.847000,-42.176000,20.908000,26.370000
5.386,0.514000,0.361000,0.588000,22.962000,-33.412000,22.397000,26.370000
5.393,0.529000,0.351000,0.576000,15.252000,-36.580000,17.817000,26.410000
5.407,0.596000,0.333000,0.572000,9.435000,-44.267000,11.763000,26.410000
5.414,0.632000,0.338000,0.516000,-1.786000,-37.756000,9.855000,26.410000
5.426,0.596000,0.345000,0.484000,-2.878000,-35.420000,6.061000,26.460000
5.433,0.599000,0.309000,0.585000,-12.702000,-40.099000,3.534000,26.370000
5.445,0.546000,0.285000,0.731000,-14.557000,-55.863000,-10.351000,26.370000
5.452,0.560000,0.286000,0.656000,-20.977000,-58.924000,-14.542000,26.410000
5.465,0.663000,0.381000,0.585000,-31.786000,-64.603000,-18.122000,26.410000
5.477,0.685000,0.418000,0.506000,-34.321000,-59.977000,-24.649000,26.410000
5.483,0.694000,0.369000,0.495000,-37.542000,-55.092000,-32.115000,26.370000
5.495,0.698000,0.338000,0.536000,-42.817000,-54.084000,-39.947000,26.370000
5.503,0.688000,0.317000,0.508000,-44.374000,-58.160000,-47.321000,26.460000
5.516,0.720000,0.344000,0.497000,-45.191000,-61.115000,-54.504000,26.370000
5.527,0.771000,0.406000,0.467000,-46.901000,-48.565000,-57.664000,26.510000
5.534,0.755000,0.419000,0.501000,-48.649000,-40.008000,-66.000000,26.320000
5.546,0.771000,0.370000,0.484000,-46.611000,-31.221000,-63.198000,26.320000
5.553,0.793000,0.226000,0.542000,-44.893000,-36.328000,-58.550000,26.460000
5.566,0.830000,0.213000,0.508000,-38.427000,-33.336000,-60.076000,26.460000
5.573,0.824000,0.229000,0.510000,-35.069000,-22.664000,-60.649000,26.370000
5.585,0.840000,0.239000,0.568000,-27.252000,-6.099000,-53.130000,26.410000
5.597,0.838000,0.263000,0.602000,-13.275000,12.870000,-57.298000,26.410000
5.604,0.774000,0.315000,0.617000,-5.679000,23.412000,-70.275000,26.510000
5.617,0.655000,0.367000,0.646000,-5.359000,26.260000,-80.763000,26.410000
5.626,0.575000,0.273000,0.744000,-8.580000,14.947000,-80.641000,26.370000
5.636,0.515000,0.316000,0.780000,-5.183000,1.137000,-79.519000,26.460000
5.643,0.479000,0.370000,0.698000,-6.962000,-6.115000,-78.389000,26.410000
5.656,0.555000,0.405000,0.667000,-5.366000,-9.191000,-71.992000,26.410000
5.663,0.593000,0.499000,0.634000,-3.466000,-4.137000,-74.160000,26.410000
5.675,0.586000,0.466000,0.613000,-1.832000,3.527000,-75.664000,26.510000
5.682,0.545000,0.450000,0.660000,1.290000,10.366000,-79.992000,26.460000
5.695,0.396000,0.437000,0.736000,0.763000,5.321000,-86.351000,26.460000
5.703,0.334000,0.438000,0.810000,2.443000,-9.557000,-83.176000,26.370000
5.716,0.332000,0.536000,0.837000,9.718000,-19.817000,-78.107000,26.510000
5.727,0.321000,0.622000,0.804000,11.489000,-23.481000,-73.809000,26.410000
5.734,0.358000,0.627000,0.762000,10.214000,-27.855000,-69.046000,26.410000
5.746,0.373000,0.687000,0.695000,13.855000,-21.511000,-65.794000,26.460000
5.753,0.338000,0.712000,0.666000,18.168000,-12.412000,-64.031000,26.370000
5.766,0.353000,0.743000,0.674000,22.115000,0.527000,-57.855000,26.370000
5.773,0.263000,0.793000,0.734000,18.313000,3.183000,-56.969000,26.460000
5.785,0.263000,0.779000,0.822000,11.366000,-0.153000,-50.595000,26.510000
5.792,0.235000,0.845000,0.852000,1.725000,-5.710000,-48.832000,26.410000
5.806,0.167000,0.862000,0.883000,-9.046000,-19.542000,-48.664000,26.410000
5.817,0.143000,0.861000,0.896000,-14.840000,-34.344000,-47.198000,26.370000
5.824,0.163000,0.797000,0.902000,-17.954000,-49.595000,-42.992000,26.370000
5.836,0.259000,0.802000,0.885000,-21.099000,-59.298000,-39.687000,26.370000
5.843,0.337000,0.797000,0.855000,-25.908000,-59.275000,-38.870000,26.510000
5.855,0.409000,0.779000,0.838000,-27.344000,-50.939000,-33.267000,26.410000
5.863,0.494000,0.741000,0.799000,-15.031000,-27.313000,-24.305000,26.410000
5.876,0.475000,0.712000,0.784000,-2.298000,-5.969000,-14.809000,26.510000
5.880,0.500000,0.632000,0.817000,12.626000,6.634000,-6.267000,26.510000
5.894,0.512000,0.622000,0.817000,24.634000,13.130000,-11.382000,26.370000
5.907,0.518000,0.553000,0.836000,28.824000,9.977000,-37.977000,26.550000
5.916,0.391000,0.683000,0.826000,32.916000,3.557000,-63.649000,26.510000
5.927,0.275000,0.839000,0.735000,21.863000,1.344000,-56.634000,26.410000
5.933,0.241000,0.967000,0.634000,0.107000,-9.206000,-38.908000,26.410000
5.946,0.242000,0.900000,0.639000,-11.176000,-5.588000,-23.817000,26.550000
5.953,0.239000,0.841000,0.631000,-8.786000,-1.206000,-20.985000,26.550000
5.966,0.224000,0.863000,0.616000,-8.626000,-0.053000,-21.885000,26.460000
5.973,0.196000,0.864000,0.610000,-10.389000,-0.389000,-18.702000,26.510000
5.985,0.203000,0.839000,0.602000,-11.740000,-1.008000,-14.695000,26.410000
5.992,0.217000,0.840000,0.567000,-13.008000,1.565000,-8.740000,26.410000
6.006,0.221000,0.827000,0.568000,-17.176000,2.863000,-2.038000,26.510000
6.017,0.261000,0.787000,0.580000,-23.313000,2.855000,6.878000,26.460000
6.025,0.293000,0.725000,0.619000,-29.321000,-2.511000,11.397000,26.460000
6.036,0.354000,0.667000,0.624000,-33.435000,-7.771000,15.130000,26.460000
6.043,0.419000,0.599000,0.611000,-32.511000,-11.145000,14.794000,26.410000
6.056,0.469000,0.548000,0.627000,-30.664000,-15.435000,10.458000,26.510000
6.066,0.490000,0.525000,0.616000,-27.786000,-14.573000,6.809000,26.410000
6.075,0.503000,0.529000,0.601000,-26.115000,-11.855000,3.282000,26.550000
6.082,0.514000,0.536000,0.598000,-23.603000,-8.046000,2.611000,26.460000
6.095,0.515000,0.556000,0.577000,-19.794000,0.198000,3.412000,26.460000
6.103,0.500000,0.575000,0.586000,-16.382000,9.336000,5.504000,26.510000
6.116,0.479000,0.567000,0.633000,-14.824000,14.260000,7.626000,26.510000
6.122,0.458000,0.546000,0.664000,-14.443000,14.725000,9.427000,26.410000
6.135,0.459000,0.523000,0.693000,-13.489000,11.641000,6.588000,26.510000
6.147,0.454000,0.498000,0.701000,-13.504000,7.878000,0.443000,26.600000
6.155,0.462000,0.516000,0.684000,-13.802000,5.977000,-5.588000,26.370000
6.167,0.427000,0.547000,0.680000,-13.412000,3.649000,-7.115000,26.460000
6.176,0.423000,0.579000,0.677000,-12.229000,2.099000,-7.298000,26.510000
6.186,0.413000,0.611000,0.669000,-11.061000,1.366000,-3.992000,26.510000
6.193,0.414000,0.604000,0.682000,-10.611000,1.634000,-0.527000,26.510000
6.206,0.422000,0.588000,0.684000,-10.542000,1.496000,-0.168000,26.550000
6.215,0.424000,0.550000,0.701000,-10.573000,-1.679000,-1.626000,26.460000
6.226,0.428000,0.541000,0.702000,-9.748000,-3.718000,-2.916000,26.550000
6.233,0.436000,0.549000,0.685000,-7.153000,-2.870000,-3.924000,26.510000
6.245,0.446000,0.552000,0.688000,-4.153000,-3.061000,-3.618000,26.510000
6.253,0.444000,0.557000,0.674000,-2.229000,-1.458000,-4.626000,26.410000
6.268,0.430000,0.579000,0.675000,-2.084000,-1.221000,-5.496000,26.460000
6.274,0.417000,0.592000,0.673000,-2.046000,-3.435000,-6.634000,26.550000
6.285,0.411000,0.598000,0.660000,-3.656000,-3.878000,-5.702000,26.460000
6.290,0.419000,0.591000,0.649000,-3.382000,-2.107000,-3.733000,26.550000
6.305,0.426000,0.588000,0.644000,-1.435000,2.809000,-1.496000,26.510000
6.317,0.407000,0.595000,0.664000,0.779000,6.641000,-0.725000,26.510000
6.325,0.367000,0.606000,0.697000,1.702000,5.916000,1.282000,26.410000
6.332,0.340000,0.609000,0.713000,1.420000,2.221000,4.969000,26.460000
6.344,0.356000,0.586000,0.720000,0.954000,-3.702000,6.885000,26.460000
6.352,0.380000,0.583000,0.689000,0.336000,-8.809000,6.511000,26.550000
6.366,0.408000,0.585000,0.669000,-1.595000,-11.092000,4.160000,26.410000
6.377,0.416000,0.578000,0.647000,-4.130000,-13.473000,1.840000,26.510000
6.384,0.437000,0.583000,0.629000,-6.458000,-14.023000,3.466000,26.600000
6.397,0.471000,0.581000,0.602000,-5.832000,-8.740000,5.267000,26.410000
6.404,0.467000,0.564000,0.614000,-5.145000,-3.687000,5.198000,26.550000
6.417,0.463000,0.555000,0.642000,-4.466000,-1.366000,5.298000,26.370000
6.424,0.444000,0.573000,0.651000,-3.855000,0.496000,4.435000,26.410000
6.436,0.420000,0.582000,0.670000,-5.252000,-1.214000,2.626000,26.510000
6.444,0.405000,0.579000,0.691000,-7.489000,-4.160000,2.244000,26.410000
6.456,0.410000,0.574000,0.689000,-7.916000,-8.176000,2.611000,26.460000
6.466,0.420000,0.557000,0.692000,-6.786000,-9.313000,3.450000,26.460000
6.476,0.438000,0.540000,0.694000,-4.412000,-9.084000,2.664000,26.460000
6.483,0.419000,0.546000,0.698000,-0.473000,-7.160000,2.916000,26.410000
6.496,0.395000,0.540000,0.731000,3.130000,-6.649000,2.962000,26.510000
6.503,0.383000,0.547000,0.734000,5.947000,-7.229000,4.924000,26.510000
6.516,0.375000,0.565000,0.729000,7.679000,-8.534000,6.275000,26.550000
6.524,0.378000,0.558000,0.723000,8.237000,-10.260000,10.328000,26.550000
6.536,0.392000,0.544000,0.723000,9.573000,-12.969000,10.809000,26.550000
6.543,0.390000,0.543000,0.721000,10.374000,-16.214000,11.130000,26.510000
6.557,0.404000,0.537000,0.707000,13.008000,-18.450000,11.420000,26.510000
6.563,0.398000,0.533000,0.663000,15.252000,-18.489000,11.573000,26.510000
6.576,0.416000,0.503000,0.672000,21.908000,-17.008000,14.710000,26.550000
6.587,0.430000,0.498000,0.668000,33.374000,-11.779000,18.023000,26.460000
6.594,0.434000,0.510000,0.656000,45.298000,-3.534000,22.679000,26.550000
6.607,0.416000,0.500000,0.681000,52.702000,-2.298000,27.061000,26.460000
6.615,0.422000,0.506000,0.681000,57.710000,-3.664000,30.786000,26.600000
6.627,0.422000,0.523000,0.660000,58.931000,-4.893000,30.084000,26.510000
6.633,0.421000,0.500000,0.652000,58.527000,-8.458000,28.023000,26.510000
6.646,0.462000,0.508000,0.632000,58.122000,-8.275000,27.962000,26.510000
6.653,0.453000,0.536000,0.620000,55.679000,-10.130000,26.130000,26.550000
6.666,0.433000,0.567000,0.612000,51.702000,-15.863000,28.260000,26.550000
6.673,0.450000,0.573000,0.602000,48.672000,-21.000000,29.321000,26.510000
6.685,0.461000,0.579000,0.590000,46.046000,-24.191000,30.107000,26.510000
6.692,0.472000,0.587000,0.564000,43.435000,-26.718000,27.153000,26.600000
6.705,0.480000,0.599000,0.544000,39.015000,-28.534000,26.275000,26.460000
6.717,0.503000,0.615000,0.513000,34.611000,-28.908000,27.511000,26.550000
6.725,0.531000,0.609000,0.495000,32.924000,-29.405000,28.366000,26.460000
6.736,0.569000,0.622000,0.477000,32.779000,-26.435000,28.809000,26.510000
6.743,0.594000,0.618000,0.466000,35.435000,-25.107000,25.969000,26.690000
6.757,0.610000,0.634000,0.483000,31.847000,-24.420000,22.931000,26.510000
6.764,0.631000,0.659000,0.464000,25.992000,-21.565000,23.389000,26.550000
6.776,0.628000,0.666000,0.465000,21.305000,-20.351000,23.557000,26.550000
6.782,0.628000,0.634000,0.490000,20.863000,-18.458000,23.863000,26.550000
6.795,0.644000,0.610000,0.524000,26.641000,-17.641000,21.496000,26.510000
6.802,0.653000,0.623000,0.514000,31.588000,-14.718000,21.588000,26.510000
6.816,0.676000,0.623000,0.514000,35.786000,-10.550000,21.473000,26.510000
6.827,0.687000,0.611000,0.496000,38.160000,-5.351000,18.656000,26.550000
6.834,0.680000,0.622000,0.483000,39.985000,-3.260000,14.847000,26.460000
6.847,0.667000,0.635000,0.490000,39.534000,-3.519000,8.153000,26.550000
6.855,0.643000,0.674000,0.474000,34.076000,-2.534000,2.954000,26.510000
6.867,0.612000,0.735000,0.463000,25.939000,-3.069000,5.275000,26.510000
6.875,0.601000,0.761000,0.443000,18.565000,-1.885000,10.145000,26.690000
6.886,0.623000,0.735000,0.424000,12.985000,0.840000,16.962000,26.510000
6.893,0.642000,0.702000,0.418000,10.427000,5.847000,20.130000,26.550000
6.907,0.646000,0.675000,0.431000,10.725000,12.550000,19.214000,26.650000
6.914,0.624000,0.656000,0.462000,10.351000,14.947000,14.824000,26.510000
6.926,0.577000,0.665000,0.488000,9.290000,13.687000,11.031000,26.600000
6.933,0.558000,0.675000,0.503000,6.985000,12.206000,9.740000,26.510000
6.946,0.545000,0.673000,0.496000,3.939000,8.740000,9.672000,26.550000
6.953,0.531000,0.690000,0.500000,1.198000,6.588000,10.771000,26.550000
6.966,0.533000,0.663000,0.499000,-1.168000,2.679000,13.260000,26.550000
6.973,0.554000,0.658000,0.493000,-1.664000,0.412000,15.420000,26.600000
6.986,0.567000,0.651000,0.480000,-0.496000,0.969000,14.992000,26.600000
6.993,0.561000,0.628000,0.480000,2.527000,2.031000,14.115000,26.510000
7.006,0.539000,0.629000,0.531000,7.672000,2.588000,12.725000,26.460000
7.013,0.505000,0.649000,0.558000,11.473000,1.405000,13.107000,26.550000
7.026,0.479000,0.662000,0.583000,12.947000,-1.481000,18.626000,26.550000
7.032,0.490000,0.684000,0.572000,14.107000,-5.313000,23.565000,26.600000
7.045,0.497000,0.670000,0.562000,15.489000,-8.656000,26.557000,26.600000
7.053,0.528000,0.665000,0.554000,19.366000,-11.542000,29.939000,26.510000
7.066,0.553000,0.656000,0.512000,23.382000,-12.092000,30.641000,26.550000
7.077,0.563000,0.642000,0.522000,26.672000,-8.847000,30.031000,26.550000
7.084,0.561000,0.656000,0.526000,28.992000,-7.214000,28.908000,26.550000
7.097,0.553000,0.674000,0.519000,29.244000,-5.511000,28.992000,26.600000
7.105,0.531000,0.678000,0.528000,28.214000,-6.107000,29.496000,26.600000
7.117,0.530000,0.686000,0.526000,28.038000,-7.763000,34.618000,26.510000
7.125,0.543000,0.685000,0.509000,30.328000,-6.740000,38.328000,26.510000
7.136,0.554000,0.694000,0.490000,32.794000,-4.947000,40.496000,26.510000
7.143,0.550000,0.678000,0.485000,35.733000,-3.038000,41.214000,26.550000
7.157,0.529000,0.691000,0.474000,38.733000,-0.992000,40.786000,26.550000
7.166,0.503000,0.715000,0.475000,41.916000,1.519000,40.985000,26.510000
7.176,0.467000,0.747000,0.484000,43.397000,0.603000,42.863000,26.600000
7.183,0.417000,0.715000,0.516000,41.740000,-6.397000,48.237000,26.600000
7.195,0.444000,0.685000,0.519000,39.863000,-20.214000,59.153000,26.550000
7.203,0.510000,0.654000,0.477000,38.557000,-32.099000,65.534000,26.550000
7.216,0.575000,0.601000,0.432000,38.237000,-38.893000,66.260000,26.650000
7.227,0.650000,0.558000,0.388000,40.527000,-39.763000,63.496000,26.600000
7.234,0.707000,0.573000,0.323000,44.359000,-31.687000,60.252000,26.510000
7.246,0.703000,0.582000,0.340000,45.206000,-22.359000,55.809000,26.600000
7.255,0.674000,0.542000,0.387000,46.893000,-20.756000,51.687000,26.650000
7.266,0.627000,0.524000,0.442000,49.443000,-25.802000,49.840000,26.650000
7.273,0.612000,0.485000,0.464000,50.183000,-34.893000,53.947000,26.650000
7.285,0.656000,0.457000,0.425000,54.168000,-41.244000,58.038000,26.510000
7.293,0.713000,0.440000,0.365000,59.130000,-39.099000,58.374000,26.600000
7.305,0.761000,0.442000,0.334000,65.893000,-33.000000,55.061000,26.600000
7.313,0.774000,0.441000,0.322000,71.824000,-20.008000,50.237000,26.650000
7.326,0.719000,0.433000,0.368000,76.725000,-11.947000,46.824000,26.550000
7.337,0.695000,0.431000,0.377000,83.344000,-6.573000,46.389000,26.550000
7.344,0.619000,0.431000,0.404000,90.489000,-7.130000,43.221000,26.600000
7.357,0.556000,0.376000,0.454000,95.534000,-16.580000,34.756000,26.600000
7.366,0.502000,0.416000,0.455000,101.611000,-22.588000,27.527000,26.600000
7.376,0.435000,0.487000,0.451000,102.130000,-34.351000,21.008000,26.600000
7.383,0.355000,0.540000,0.461000,93.305000,-54.466000,20.588000,26.550000
7.396,0.250000,0.555000,0.520000,74.244000,-90.939000,23.939000,26.650000
7.403,0.258000,0.528000,0.494000,49.221000,-133.847000,37.580000,26.600000
7.416,0.315000,0.497000,0.360000,27.863000,-167.832000,57.718000,26.600000
7.421,0.409000,0.421000,0.212000,21.763000,-189.214000,72.328000,26.690000
7.434,0.536000,0.313000,0.102000,28.832000,-193.336000,80.084000,26.650000
7.446,0.704000,0.233000,-0.016000,37.573000,-177.061000,81.992000,26.550000
7.453,0.800000,0.115000,-0.041000,48.313000,-166.366000,67.641000,26.650000
7.466,0.836000,0.185000,-0.093000,67.107000,-142.527000,53.290000,26.600000
7.472,0.787000,0.247000,-0.077000,78.748000,-124.817000,43.122000,26.600000
7.485,0.733000,0.244000,-0.073000,82.145000,-115.038000,36.740000,26.600000
7.497,0.673000,0.232000,-0.075000,86.321000,-101.176000,30.382000,26.650000
7.507,0.656000,0.193000,-0.055000,102.290000,-81.809000,27.916000,26.550000
7.516,0.583000,0.295000,-0.033000,108.137000,-70.763000,27.244000,26.650000
7.523,0.477000,0.145000,0.039000,95.344000,-106.122000,28.641000,26.690000
7.535,0.615000,0.038000,-0.104000,101.725000,-134.168000,29.519000,26.600000
7.542,0.904000,0.140000,-0.442000,100.481000,-139.076000,40.298000,26.600000
7.555,1.234000,0.271000,-0.792000,94.282000,-122.046000,25.611000,26.650000
7.567,1.419000,0.257000,-0.928000,85.115000,-78.511000,10.779000,26.550000
7.574,1.421000,0.320000,-0.931000,72.214000,-32.008000,-17.260000,26.600000
7.586,1.313000,0.359000,-0.827000,56.634000,11.832000,-28.664000,26.600000
7.593,1.098000,0.147000,-0.544000,44.916000,14.733000,-24.061000,26.600000
7.606,1.088000,0.211000,-0.457000,55.824000,6.000000,-6.305000,26.600000
7.615,1.051000,0.261000,-0.405000,57.588000,-11.420000,13.321000,26.550000
7.625,1.179000,0.236000,-0.433000,60.542000,-33.618000,32.496000,26.650000
7.630,1.247000,0.272000,-0.526000,58.321000,-36.275000,38.267000,26.600000
7.644,1.289000,0.264000,-0.545000,44.962000,-36.176000,27.115000,26.600000
7.657,1.181000,0.287000,-0.354000,37.695000,-39.603000,2.969000,26.690000
7.665,1.181000,0.358000,-0.493000,35.611000,-40.267000,-12.733000,26.650000
7.676,1.052000,0.417000,-0.411000,26.344000,-35.260000,-14.908000,26.550000
7.683,0.964000,0.419000,-0.382000,17.466000,-38.282000,-14.687000,26.650000
7.695,0.845000,0.402000,-0.262000,13.221000,-37.748000,-8.328000,26.600000
7.703,0.802000,0.400000,-0.287000,17.618000,-50.763000,3.588000,26.600000
7.715,0.798000,0.367000,-0.266000,31.802000,-38.069000,14.832000,26.600000
7.727,0.778000,0.349000,-0.372000,39.542000,-43.420000,25.290000,26.650000
7.734,0.791000,0.389000,-0.397000,43.672000,-37.252000,30.023000,26.740000
7.746,0.765000,0.410000,-0.414000,33.183000,-33.954000,29.885000,26.600000
7.753,0.730000,0.487000,-0.405000,23.817000,-33.557000,27.542000,26.600000
7.766,0.714000,0.439000,-0.411000,20.115000,-28.328000,31.443000,26.600000
7.773,0.670000,0.392000,-0.340000,16.351000,-31.679000,38.237000,26.650000
7.785,0.705000,0.357000,-0.309000,19.702000,-34.092000,47.076000,26.650000
7.797,0.710000,0.374000,-0.311000,17.489000,-37.450000,48.466000,26.650000
7.807,0.728000,0.352000,-0.325000,17.298000,-39.901000,49.267000,26.600000
7.816,0.737000,0.297000,-0.365000,20.733000,-37.099000,51.756000,26.690000
7.825,0.743000,0.253000,-0.419000,28.557000,-32.237000,58.153000,26.600000
7.836,0.795000,0.262000,-0.491000,39.458000,-22.748000,64.649000,26.690000
7.843,0.829000,0.113000,-0.489000,47.954000,-12.328000,64.779000,26.690000
7.857,0.844000,0.158000,-0.464000,59.802000,-6.939000,62.771000,26.650000
7.862,0.816000,0.235000,-0.463000,58.511000,-11.336000,55.603000,26.690000
7.875,0.816000,0.299000,-0.506000,51.069000,-22.206000,54.565000,26.690000
7.887,0.844000,0.352000,-0.580000,46.802000,-30.260000,49.412000,26.600000
7.894,0.843000,0.374000,-0.662000,40.237000,-32.366000,48.206000,26.740000
7.906,0.854000,0.353000,-0.701000,37.168000,-31.313000,49.191000,26.550000
7.914,0.853000,0.274000,-0.704000,43.221000,-20.962000,54.168000,26.650000
7.926,0.879000,0.322000,-0.731000,48.160000,-9.832000,61.649000,26.690000
7.933,0.885000,0.295000,-0.727000,55.550000,6.290000,66.985000,26.690000
7.945,0.866000,0.263000,-0.709000,64.908000,25.481000,73.527000,26.690000
7.953,0.808000,0.315000,-0.661000,73.550000,45.122000,80.519000,26.650000
7.966,0.690000,0.325000,-0.565000,78.198000,54.832000,89.802000,26.650000
7.978,0.646000,0.345000,-0.494000,80.847000,54.366000,104.695000,26.650000
7.984,0.693000,0.341000,-0.545000,76.015000,47.420000,110.863000,26.790000
7.996,0.783000,0.275000,-0.592000,66.191000,40.031000,117.756000,26.690000
8.004,0.857000,0.189000,-0.592000,52.794000,36.672000,113.634000,26.690000
8.016,0.908000,0.089000,-0.552000,34.489000,27.931000,100.198000,26.740000
8.032,0.925000,0.118000,-0.547000,23.511000,24.137000,85.481000,26.650000
8.035,0.872000,0.145000,-0.465000,11.061000,20.366000,77.740000,26.650000
8.042,0.820000,0.127000,-0.429000,2.305000,17.519000,83.840000,26.690000
8.055,0.817000,-0.121000,-0.360000,14.534000,16.992000,92.435000,26.690000
8.068,0.843000,-0.164000,-0.341000,30.679000,5.885000,97.893000,26.690000
8.075,0.958000,-0.096000,-0.367000,38.374000,0.420000,105.366000,26.690000
8.086,1.063000,-0.076000,-0.427000,48.939000,-0.641000,103.496000,26.650000
8.093,1.096000,-0.075000,-0.404000,54.176000,-0.748000,110.435000,26.650000
8.106,1.234000,-0.081000,-0.548000,60.023000,8.214000,90.947000,26.690000
8.114,1.121000,0.057000,-0.489000,47.183000,22.046000,73.313000,26.690000
8.125,1.106000,0.013000,-0.498000,23.611000,13.450000,59.947000,26.690000
8.132,1.167000,0.047000,-0.555000,-0.382000,13.130000,56.137000,26.740000
8.144,1.074000,-0.013000,-0.533000,-18.809000,16.328000,62.351000,26.740000
8.157,1.021000,-0.312000,-0.427000,-2.802000,22.580000,60.336000,26.740000
8.166,1.078000,-0.299000,-0.425000,13.466000,16.382000,55.137000,26.690000
8.176,1.030000,-0.139000,-0.444000,13.679000,16.580000,58.573000,26.690000
8.183,1.107000,-0.209000,-0.438000,18.809000,17.176000,64.641000,26.690000
8.195,1.061000,-0.176000,-0.422000,24.046000,17.405000,72.107000,26.740000
8.203,1.033000,-0.191000,-0.407000,25.794000,10.359000,77.130000,26.740000
8.216,1.015000,-0.196000,-0.421000,28.260000,11.382000,79.321000,26.740000
8.221,1.022000,-0.206000,-0.447000,28.748000,11.130000,78.023000,26.690000
8.234,0.922000,-0.230000,-0.367000,28.924000,10.511000,79.366000,26.690000
8.246,0.992000,-0.291000,-0.448000,29.992000,15.901000,73.198000,26.790000
8.254,0.863000,-0.338000,-0.386000,24.893000,20.939000,73.794000,26.740000
8.266,0.847000,-0.379000,-0.371000,33.702000,24.710000,68.328000,26.740000
8.274,0.803000,-0.253000,-0.409000,29.748000,29.947000,76.641000,26.650000
8.285,0.778000,-0.187000,-0.391000,22.519000,25.031000,81.015000,26.690000
8.292,0.732000,-0.183000,-0.318000,14.595000,17.427000,86.595000,26.690000
8.307,0.720000,-0.283000,-0.297000,11.733000,6.511000,91.351000,26.790000
8.317,0.741000,-0.380000,-0.277000,10.328000,-8.908000,87.573000,26.690000
8.324,0.862000,-0.483000,-0.259000,10.008000,-13.122000,75.992000,26.650000
8.336,0.960000,-0.547000,-0.307000,13.855000,-16.595000,67.107000,26.690000
8.343,0.967000,-0.506000,-0.344000,15.275000,-17.153000,59.389000,26.790000
8.357,0.915000,-0.399000,-0.335000,9.061000,-18.412000,62.573000,26.790000
8.363,0.911000,-0.407000,-0.343000,-0.817000,-22.786000,60.282000,26.650000
8.375,0.822000,-0.372000,-0.327000,-14.740000,-35.611000,66.267000,26.740000
8.386,0.781000,-0.404000,-0.363000,-25.305000,-52.366000,76.412000,26.740000
8.393,0.797000,-0.491000,-0.382000,-29.664000,-63.084000,79.191000,26.790000
8.406,0.818000,-0.538000,-0.471000,-35.359000,-63.412000,76.908000,26.690000
8.415,0.826000,-0.567000,-0.540000,-36.099000,-65.092000,81.481000,26.690000
8.425,0.718000,-0.530000,-0.583000,-50.076000,-67.740000,99.298000,26.740000
8.437,0.768000,-0.671000,-0.460000,-33.840000,-57.687000,93.649000,26.650000
8.443,0.835000,-0.688000,-0.482000,-19.008000,-35.679000,83.275000,26.740000
8.456,0.855000,-0.717000,-0.457000,-9.740000,-30.069000,72.756000,26.690000
8.464,0.850000,-0.706000,-0.408000,-0.786000,-25.496000,76.756000,26.690000
8.476,0.939000,-0.696000,-0.435000,9.160000,-6.702000,62.626000,26.690000
8.482,0.854000,-0.700000,-0.423000,9.069000,-3.504000,60.603000,26.840000
8.494,0.770000,-0.719000,-0.404000,10.580000,-6.511000,63.573000,26.740000
8.507,0.562000,-0.686000,-0.307000,10.618000,-46.221000,90.336000,26.740000
8.514,0.476000,-0.759000,-0.222000,45.763000,-89.672000,81.710000,26.790000
8.526,0.614000,-0.644000,-0.492000,6.832000,-67.344000,80.916000,26.690000
8.533,0.732000,-0.689000,-0.456000,4.878000,-77.191000,78.786000,26.690000
8.545,0.864000,-0.621000,-0.600000,3.626000,-64.267000,77.466000,26.690000
8.553,0.893000,-0.637000,-0.580000,0.366000,-43.511000,72.374000,26.840000
8.566,0.855000,-0.632000,-0.533000,-4.198000,-30.282000,61.992000,26.740000
8.577,0.813000,-0.712000,-0.476000,-4.206000,-22.115000,51.458000,26.690000
8.584,0.789000,-0.757000,-0.452000,4.214000,-17.901000,34.573000,26.790000
8.596,0.794000,-0.672000,-0.440000,13.183000,-5.992000,16.084000,26.690000
8.606,0.796000,-0.554000,-0.421000,17.878000,12.130000,2.252000,26.740000
8.616,0.754000,-0.493000,-0.382000,19.885000,27.534000,-3.695000,26.740000
8.625,0.643000,-0.482000,-0.300000,18.450000,32.107000,-1.672000,26.840000
8.635,0.543000,-0.505000,-0.245000,14.771000,26.321000,10.015000,26.790000
8.642,0.481000,-0.552000,-0.209000,11.336000,10.336000,22.351000,26.790000
8.655,0.484000,-0.645000,-0.241000,10.916000,-3.947000,31.954000,26.690000
8.667,0.551000,-0.736000,-0.276000,17.466000,-15.855000,35.214000,26.740000
8.674,0.593000,-0.739000,-0.335000,22.237000,-22.809000,35.282000,26.740000
8.686,0.635000,-0.760000,-0.391000,25.672000,-27.802000,35.779000,26.880000
8.693,0.644000,-0.760000,-0.432000,24.176000,-32.366000,37.878000,26.790000
8.707,0.703000,-0.772000,-0.547000,15.420000,-28.779000,35.221000,26.790000
8.711,0.725000,-0.832000,-0.590000,16.267000,-27.718000,27.366000,26.840000
8.725,0.781000,-0.829000,-0.695000,23.359000,-11.237000,12.397000,26.650000
8.736,0.798000,-0.696000,-0.708000,30.053000,11.389000,-2.855000,26.840000
8.743,0.735000,-0.624000,-0.667000,30.748000,30.847000,-11.924000,26.790000
8.756,0.609000,-0.613000,-0.559000,26.664000,39.366000,-13.985000,26.790000
8.763,0.470000,-0.602000,-0.456000,20.023000,34.710000,-12.397000,26.790000
8.775,0.438000,-0.626000,-0.433000,12.344000,28.695000,-8.107000,26.690000
8.782,0.442000,-0.610000,-0.468000,8.695000,24.626000,-7.649000,26.740000
8.794,0.415000,-0.604000,-0.475000,8.344000,27.443000,-4.252000,26.740000
8.807,0.425000,-0.547000,-0.471000,8.389000,32.611000,5.290000,26.790000
8.815,0.362000,-0.555000,-0.414000,1.969000,25.229000,20.405000,26.790000
8.827,0.417000,-0.641000,-0.389000,-3.473000,16.366000,39.756000,26.790000
8.833,0.463000,-0.693000,-0.390000,-7.305000,2.992000,54.344000,26.840000
8.846,0.557000,-0.732000,-0.465000,-11.374000,0.931000,60.046000,26.740000
8.853,0.707000,-0.764000,-0.534000,-11.779000,9.137000,55.046000,26.740000
8.866,0.656000,-0.779000,-0.466000,-7.832000,19.221000,41.290000,26.790000
8.872,0.678000,-0.853000,-0.402000,9.618000,36.893000,22.389000,26.790000
8.885,0.579000,-0.832000,-0.344000,26.122000,46.672000,13.466000,26.790000
8.897,0.496000,-0.835000,-0.284000,35.870000,42.160000,9.588000,26.840000
8.904,0.455000,-0.795000,-0.346000,34.786000,27.527000,23.611000,26.740000
8.916,0.513000,-0.979000,-0.499000,52.359000,6.756000,42.802000,26.840000
8.924,0.536000,-0.664000,-0.514000,31.809000,12.145000,41.420000,26.690000
8.935,0.497000,-0.561000,-0.564000,23.412000,28.084000,29.206000,26.790000
8.942,0.553000,-0.500000,-0.495000,19.893000,46.809000,32.153000,26.840000
8.957,0.370000,-0.487000,-0.342000,15.916000,41.115000,40.679000,26.740000
8.962,0.240000,-0.646000,-0.175000,34.061000,15.740000,60.992000,26.740000
8.974,0.339000,-0.664000,-0.156000,57.405000,-17.076000,76.809000,26.790000
8.986,0.425000,-0.804000,-0.369000,15.435000,2.130000,93.443000,26.790000
8.993,0.532000,-0.837000,-0.239000,38.802000,23.679000,87.382000,26.790000
9.007,0.756000,-0.903000,-0.480000,59.679000,70.473000,89.160000,26.790000
9.016,0.602000,-0.806000,-0.223000,73.107000,83.389000,80.496000,26.840000
9.026,0.406000,-0.811000,-0.089000,86.206000,76.580000,78.649000,26.740000
9.032,0.391000,-0.854000,-0.113000,95.145000,70.664000,82.153000,26.790000
9.044,0.289000,-0.885000,-0.071000,99.214000,37.229000,86.954000,26.790000
9.057,0.174000,-0.865000,-0.506000,135.450000,-40.771000,85.740000,26.790000
9.065,0.382000,-0.840000,-0.052000,80.344000,31.634000,76.863000,26.840000
9.076,0.415000,-0.849000,-0.124000,75.031000,36.130000,77.542000,26.740000
9.083,0.346000,-0.859000,-0.083000,67.603000,27.221000,73.282000,26.840000
9.095,0.280000,-0.978000,-0.056000,50.885000,-3.649000,67.885000,26.790000
9.103,0.277000,-1.022000,-0.123000,35.641000,-31.061000,74.534000,26.880000
9.116,0.353000,-0.982000,-0.241000,25.824000,-41.824000,76.924000,26.880000
9.127,0.359000,-1.006000,-0.295000,20.573000,-46.931000,83.855000,26.840000
9.134,0.444000,-0.996000,-0.312000,15.229000,-40.031000,90.878000,26.840000
9.146,0.486000,-1.021000,-0.265000,21.931000,-19.466000,89.763000,26.740000
9.153,0.488000,-1.035000,-0.177000,23.847000,-15.687000,82.679000,26.790000
9.166,0.475000,-1.072000,-0.174000,24.901000,-19.664000,69.473000,26.880000
9.172,0.364000,-1.061000,-0.110000,27.931000,-25.878000,56.000000,26.790000
9.184,0.421000,-1.084000,-0.241000,29.053000,-22.290000,52.305000,26.840000
9.196,0.375000,-1.053000,-0.234000,27.550000,-26.420000,51.130000,26.840000
9.204,0.354000,-1.021000,-0.266000,21.763000,-29.809000,53.840000,26.840000
9.217,0.351000,-1.013000,-0.280000,12.908000,-39.344000,58.038000,26.790000
9.225,0.359000,-1.058000,-0.273000,4.901000,-48.794000,55.214000,26.790000
9.235,0.407000,-1.098000,-0.250000,3.916000,-55.718000,51.275000,26.790000
9.242,0.457000,-1.121000,-0.306000,1.687000,-53.374000,43.733000,26.790000
9.257,0.530000,-1.157000,-0.393000,1.786000,-41.153000,39.153000,26.740000
9.267,0.546000,-1.149000,-0.442000,-1.344000,-26.756000,31.954000,26.790000
9.275,0.497000,-1.181000,-0.414000,-11.305000,-24.901000,25.618000,26.790000
9.286,0.487000,-1.229000,-0.455000,-14.718000,-20.115000,25.214000,26.880000
9.292,0.490000,-1.210000,-0.477000,-18.679000,-21.137000,17.977000,26.740000
9.307,0.517000,-1.226000,-0.512000,-22.092000,-21.374000,9.046000,26.740000
9.317,0.537000,-1.236000,-0.520000,-21.244000,-13.008000,-3.481000,26.840000
9.325,0.569000,-1.195000,-0.547000,-23.298000,3.977000,-8.107000,26.790000
9.336,0.547000,-1.156000,-0.542000,-26.076000,19.901000,-12.481000,26.880000
9.343,0.490000,-1.105000,-0.428000,-28.542000,35.542000,-17.595000,26.880000
9.357,0.409000,-1.132000,-0.316000,-24.924000,34.389000,-20.122000,26.840000
9.362,0.407000,-1.125000,-0.288000,-24.237000,37.153000,-18.947000,26.840000
9.375,0.445000,-1.079000,-0.276000,-27.198000,45.107000,-16.756000,26.840000
9.386,0.333000,-1.248000,-0.259000,-23.069000,23.931000,-20.466000,26.690000
9.393,0.415000,-1.303000,-0.338000,-15.489000,25.290000,-12.802000,26.790000
9.405,0.479000,-1.232000,-0.329000,-13.977000,29.412000,-18.908000,26.790000
9.413,0.591000,-1.193000,-0.419000,-3.565000,27.389000,-23.870000,26.840000
9.425,0.533000,-1.112000,-0.377000,-12.412000,34.725000,-43.122000,26.840000
9.436,0.598000,-1.081000,-0.388000,-25.733000,46.511000,-63.450000,26.740000
9.443,0.547000,-0.967000,-0.357000,-32.977000,59.542000,-67.275000,26.690000
9.456,0.361000,-0.959000,-0.384000,-40.076000,50.420000,-61.405000,26.880000
9.463,0.324000,-1.028000,-0.393000,-56.374000,55.679000,-51.046000,26.880000
9.476,0.280000,-0.976000,-0.372000,-73.473000,54.473000,-38.947000,26.880000
9.487,0.301000,-1.122000,-0.360000,-77.763000,51.328000,-45.237000,26.840000
9.493,0.365000,-1.141000,-0.467000,-61.916000,62.420000,-52.832000,26.880000
9.507,0.337000,-1.103000,-0.506000,-47.527000,73.565000,-66.840000,26.980000
9.513,0.311000,-1.096000,-0.578000,-35.305000,83.519000,-59.840000,26.790000
9.525,0.283000,-1.013000,-0.590000,-45.466000,99.870000,-60.031000,26.840000
9.537,0.277000,-0.881000,-0.466000,-67.412000,91.779000,-53.405000,26.840000
9.544,0.390000,-0.799000,-0.470000,-97.809000,92.992000,-46.191000,26.840000
9.556,0.158000,-0.789000,0.342000,-147.237000,-4.023000,-62.641000,26.880000
9.563,0.472000,-0.885000,-0.123000,-127.840000,23.618000,-60.893000,26.790000
9.575,0.173000,-1.047000,0.303000,-113.557000,-43.656000,-73.466000,26.880000
9.587,0.556000,-1.205000,-0.209000,-57.939000,-29.672000,-64.374000,26.840000
9.593,0.636000,-1.167000,-0.361000,-19.351000,-24.275000,-70.733000,26.840000
9.606,0.696000,-0.997000,-0.585000,-16.275000,5.107000,-79.412000,26.840000
9.613,0.686000,-0.831000,-0.643000,-26.626000,39.550000,-84.557000,26.790000
9.624,0.488000,-0.929000,-0.458000,-27.061000,65.534000,-87.443000,26.880000
9.646,0.488000,-0.929000,-0.458000,-27.061000,65.534000,-87.443000,112.080000
9.674,0.488000,-0.929000,-0.458000,-27.061000,65.534000,-87.443000,112.080000
9.696,0.488000,-0.929000,-0.458000,-27.061000,65.534000,-87.443000,112.080000
9.718,0.488000,-0.929000,-0.458000,-27.061000,65.534000,-87.443000,112.080000
9.746,0.488000,-0.929000,-0.458000,-27.061000,65.534000,-87.443000,112.080000
9.769,0.488000,-0.929000,-0.458000,-27.061000,65.534000,-87.443000,112.080000
9.790,0.488000,-0.929000,-0.458000,-27.061000,65.534000,-87.443000,112.080000
9.818,0.488000,-0.929000,-0.458000,-27.061000,65.534000,-87.443000,112.080000
9.840,0.488000,-0.929000,-0.458000,-27.061000,65.534000,-87.443000,112.080000
9.862,0.488000,-0.929000,-0.458000,-27.061000,65.534000,-87.443000,112.080000
9.890,0.488000,-0.929000,-0.458000,-27.061000,65.534000,-87.443000,112.080000
9.913,0.488000,-0.929000,-0.458000,-27.061000,65.534000,-87.443000,112.080000
9.935,0.488000,-0.929000,-0.458000,-27.061000,65.534000,-87.443000,112.080000
9.963,0.488000,-0.929000,-0.458000,-27.061000,65.534000,-87.443000,112.080000
9.985,0.488000,-0.929000,-0.458000,-27.061000,65.534000,-87.443000,112.080000
10.007,0.488000,-0.929000,-0.458000,-27.061000,65.534000,-87.443000,112.080000
10.035,0.488000,-0.929000,-0.458000,-27.061000,65.534000,-87.443000,112.080000
10.057,0.488000,-0.929000,-0.458000,-27.061000,65.534000,-87.443000,112.080000
10.079,0.488000,-0.929000,-0.458000,-27.061000,65.534000,-87.443000,112.080000
10.107,0.488000,-0.929000,-0.458000,-27.061000,65.534000,-87.443000,112.080000
10.129,0.488000,-0.929000,-0.458000,-27.061000,65.534000,-87.443000,112.080000
10.152,0.488000,-0.929000,-0.458000,-27.061000,65.534000,-87.443000,112.080000
10.175,0.488000,-0.929000,-0.458000,-27.061000,65.534000,-87.443000,112.080000
10.203,0.488000,-0.929000,-0.458000,-27.061000,65.534000,-87.443000,112.080000
10.225,0.488000,-0.929000,-0.458000,-27.061000,65.534000,-87.443000,112.080000
10.246,0.488000,-0.929000,-0.458000,-27.061000,65.534000,-87.443000,112.080000
10.274,0.488000,-0.929000,-0.458000,-27.061000,65.534000,-87.443000,112.080000
10.296,0.488000,-0.929000,-0.458000,-27.061000,65.534000,-87.443000,112.080000
10.318,0.488000,-0.929000,-0.458000,-27.061000,65.534000,-87.443000,112.080000
10.346,0.488000,-0.929000,-0.458000,-27.061000,65.534000,-87.443000,112.080000
10.369,0.488000,-0.929000,-0.458000,-27.061000,65.534000,-87.443000,112.080000
10.390,0.488000,-0.929000,-0.458000,-27.061000,65.534000,-87.443000,112.080000
10.419,0.488000,-0.929000,-0.458000,-27.061000,65.534000,-87.443000,112.080000
10.440,0.488000,-0.929000,-0.458000,-27.061000,65.534000,-87.443000,112.080000
10.463,0.488000,-0.929000,-0.458000,-27.061000,65.534000,-87.443000,112.080000
10.490,0.488000,-0.929000,-0.458000,-27.061000,65.534000,-87.443000,112.080000
10.513,0.488000,-0.929000,-0.458000,-27.061000,65.534000,-87.443000,112.080000
10.535,0.488000,-0.929000,-0.458000,-27.061000,65.534000,-87.443000,112.080000
10.562,0.488000,-0.929000,-0.458000,-27.061000,65.534000,-87.443000,112.080000
10.585,0.488000,-0.929000,-0.458000,-27.061000,65.534000,-87.443000,112.080000
10.607,0.488000,-0.929000,-0.458000,-27.061000,65.534000,-87.443000,112.080000
10.635,0.488000,-0.929000,-0.458000,-27.061000,65.534000,-87.443000,112.080000
10.657,0.488000,-0.929000,-0.458000,-27.061000,65.534000,-87.443000,112.080000
10.679,0.488000,-0.929000,-0.458000,-27.061000,65.534000,-87.443000,112.080000
10.707,0.488000,-0.929000,-0.458000,-27.061000,65.534000,-87.443000,112.080000
10.729,0.488000,-0.929000,-0.458000,-27.061000,65.534000,-87.443000,112.080000
10.753,0.488000,-0.929000,-0.458000,-27.061000,65.534000,-87.443000,112.080000
10.779,0.488000,-0.929000,-0.458000,-27.061000,65.534000,-87.443000,112.080000
10.802,0.488000,-0.929000,-0.458000,-27.061000,65.534000,-87.443000,112.080000
10.825,0.488000,-0.929000,-0.458000,-27.061000,65.534000,-87.443000,112.080000
10.853,0.488000,-0.929000,-0.458000,-27.061000,65.534000,-87.443000,112.080000
10.874,0.488000,-0.929000,-0.458000,-27.061000,65.534000,-87.443000,112.080000
10.896,0.488000,-0.929000,-0.458000,-27.061000,65.534000,-87.443000,112.080000
10.924,0.488000,-0.929000,-0.458000,-27.061000,65.534000,-87.443000,112.080000
10.945,0.488000,-0.929000,-0.458000,-27.061000,65.534000,-87.443000,112.080000
10.969,0.488000,-0.929000,-0.458000,-27.061000,65.534000,-87.443000,112.080000
10.995,0.488000,-0.929000,-0.458000,-27.061000,65.534000,-87.443000,112.080000
11.018,0.488000,-0.929000,-0.458000,-27.061000,65.534000,-87.443000,112.080000
11.040,0.488000,-0.929000,-0.458000,-27.061000,65.534000,-87.443000,112.080000
11.069,0.488000,-0.929000,-0.458000,-27.061000,65.534000,-87.443000,112.080000
11.090,0.488000,-0.929000,-0.458000,-27.061000,65.534000,-87.443000,112.080000
11.113,0.488000,-0.929000,-0.458000,-27.061000,65.534000,-87.443000,112.080000
11.140,0.488000,-0.929000,-0.458000,-27.061000,65.534000,-87.443000,112.080000
11.163,0.488000,-0.929000,-0.458000,-27.061000,65.534000,-87.443000,112.080000
11.185,0.488000,-0.929000,-0.458000,-27.061000,65.534000,-87.443000,112.080000
11.212,0.488000,-0.929000,-0.458000,-27.061000,65.534000,-87.443000,112.080000
11.235,0.488000,-0.929000,-0.458000,-27.061000,65.534000,-87.443000,112.080000
11.257,0.488000,-0.929000,-0.458000,-27.061000,65.534000,-87.443000,112.080000
11.285,0.488000,-0.929000,-0.458000,-27.061000,65.534000,-87.443000,112.080000
11.307,0.488000,-0.929000,-0.458000,-27.061000,65.534000,-87.443000,112.080000
11.329,0.488000,-0.929000,-0.458000,-27.061000,65.534000,-87.443000,112.080000
11.357,0.488000,-0.929000,-0.458000,-27.061000,65.534000,-87.443000,112.080000
11.379,0.488000,-0.929000,-0.458000,-27.061000,65.534000,-87.443000,112.080000
11.403,0.488000,-0.929000,-0.458000,-27.061000,65.534000,-87.443000,112.080000
11.429,0.488000,-0.929000,-0.458000,-27.061000,65.534000,-87.443000,112.080000
11.459,0.488000,-0.929000,-0.458000,-27.061000,65.534000,-87.443000,112.080000
11.474,0.488000,-0.929000,-0.458000,-27.061000,65.534000,-87.443000,112.080000
11.503,0.488000,-0.929000,-0.458000,-27.061000,65.534000,-87.443000,112.080000
11.524,0.488000,-0.929000,-0.458000,-27.061000,65.534000,-87.443000,112.080000
11.546,0.488000,-0.929000,-0.458000,-27.061000,65.534000,-87.443000,112.080000
11.573,0.488000,-0.929000,-0.458000,-27.061000,65.534000,-87.443000,112.080000
11.595,0.488000,-0.929000,-0.458000,-27.061000,65.534000,-87.443000,112.080000
11.618,0.488000,-0.929000,-0.458000,-27.061000,65.534000,-87.443000,112.080000
11.645,0.488000,-0.929000,-0.458000,-27.061000,65.534000,-87.443000,112.080000
11.668,0.488000,-0.929000,-0.458000,-27.061000,65.534000,-87.443000,112.080000
11.690,0.488000,-0.929000,-0.458000,-27.061000,65.534000,-87.443000,112.080000
11.713,0.488000,-0.929000,-0.458000,-27.061000,65.534000,-87.443000,112.080000
11.740,0.488000,-0.929000,-0.458000,-27.061000,65.534000,-87.443000,112.080000
11.763,0.488000,-0.929000,-0.458000,-27.061000,65.534000,-87.443000,112.080000
11.784,0.488000,-0.929000,-0.458000,-27.061000,65.534000,-87.443000,112.080000
11.812,0.488000,-0.929000,-0.458000,-27.061000,65.534000,-87.443000,112.080000
11.835,0.488000,-0.929000,-0.458000,-27.061000,65.534000,-87.443000,112.080000
11.857,0.488000,-0.929000,-0.458000,-27.061000,65.534000,-87.443000,112.080000
11.885,0.488000,-0.929000,-0.458000,-27.061000,65.534000,-87.443000,112.080000
11.907,0.488000,-0.929000,-0.458000,-27.061000,65.534000,-87.443000,112.080000
11.929,0.488000,-0.929000,-0.458000,-27.061000,65.534000,-87.443000,112.080000
11.957,0.488000,-0.929000,-0.458000,-27.061000,65.534000,-87.443000,112.080000
11.979,0.488000,-0.929000,-0.458000,-27.061000,65.534000,-87.443000,112.080000
12.003,0.488000,-0.929000,-0.458000,-27.061000,65.534000,-87.443000,112.080000
12.029,0.488000,-0.929000,-0.458000,-27.061000,65.534000,-87.443000,112.080000
12.053,0.488000,-0.929000,-0.458000,-27.061000,65.534000,-87.443000,112.080000
12.074,0.488000,-0.929000,-0.458000,-27.061000,65.534000,-87.443000,112.080000
12.103,0.488000,-0.929000,-0.458000,-27.061000,65.534000,-87.443000,112.080000
12.123,0.488000,-0.929000,-0.458000,-27.061000,65.534000,-87.443000,112.080000
12.145,0.488000,-0.929000,-0.458000,-27.061000,65.534000,-87.443000,112.080000
12.173,0.488000,-0.929000,-0.458000,-27.061000,65.534000,-87.443000,112.080000
12.195,0.488000,-0.929000,-0.458000,-27.061000,65.534000,-87.443000,112.080000
12.219,0.488000,-0.929000,-0.458000,-27.061000,65.534000,-87.443000,112.080000
12.245,0.488000,-0.929000,-0.458000,-27.061000,65.534000,-87.443000,112.080000
12.269,0.488000,-0.929000,-0.458000,-27.061000,65.534000,-87.443000,112.080000
12.290,0.488000,-0.929000,-0.458000,-27.061000,65.534000,-87.443000,112.080000
12.318,0.488000,-0.929000,-0.458000,-27.061000,65.534000,-87.443000,112.080000
12.340,0.488000,-0.929000,-0.458000,-27.061000,65.534000,-87.443000,112.080000
12.362,0.488000,-0.929000,-0.458000,-27.061000,65.534000,-87.443000,112.080000
12.390,0.488000,-0.929000,-0.458000,-27.061000,65.534000,-87.443000,112.080000
12.412,0.488000,-0.929000,-0.458000,-27.061000,65.534000,-87.443000,112.080000
12.435,0.488000,-0.929000,-0.458000,-27.061000,65.534000,-87.443000,112.080000
12.462,0.488000,-0.929000,-0.458000,-27.061000,65.534000,-87.443000,112.080000
12.484,0.488000,-0.929000,-0.458000,-27.061000,65.534000,-87.443000,112.080000
12.507,0.488000,-0.929000,-0.458000,-27.061000,65.534000,-87.443000,112.080000
12.534,0.488000,-0.929000,-0.458000,-27.061000,65.534000,-87.443000,112.080000
12.557,0.488000,-0.929000,-0.458000,-27.061000,65.534000,-87.443000,112.080000
12.579,0.488000,-0.929000,-0.458000,-27.061000,65.534000,-87.443000,112.080000
12.607,0.488000,-0.929000,-0.458000,-27.061000,65.534000,-87.443000,112.080000
12.629,0.488000,-0.929000,-0.458000,-27.061000,65.534000,-87.443000,112.080000
12.652,0.488000,-0.929000,-0.458000,-27.061000,65.534000,-87.443000,112.080000
12.679,0.488000,-0.929000,-0.458000,-27.061000,65.534000,-87.443000,112.080000
12.703,0.488000,-0.929000,-0.458000,-27.061000,65.534000,-87.443000,112.080000
12.724,0.488000,-0.929000,-0.458000,-27.061000,65.534000,-87.443000,112.080000
12.752,0.488000,-0.929000,-0.458000,-27.061000,65.534000,-87.443000,112.080000
12.773,0.488000,-0.929000,-0.458000,-27.061000,65.534000,-87.443000,112.080000
12.795,0.488000,-0.929000,-0.458000,-27.061000,65.534000,-87.443000,112.080000
12.823,0.488000,-0.929000,-0.458000,-27.061000,65.534000,-87.443000,112.080000
12.845,0.488000,-0.929000,-0.458000,-27.061000,65.534000,-87.443000,112.080000
12.868,0.488000,-0.929000,-0.458000,-27.061000,65.534000,-87.443000,112.080000
12.895,0.488000,-0.929000,-0.458000,-27.061000,65.534000,-87.443000,112.080000
12.918,0.488000,-0.929000,-0.458000,-27.061000,65.534000,-87.443000,112.080000
12.940,0.488000,-0.929000,-0.458000,-27.061000,65.534000,-87.443000,112.080000
12.968,0.488000,-0.929000,-0.458000,-27.061000,65.534000,-87.443000,112.080000
12.990,0.488000,-0.929000,-0.458000,-27.061000,65.534000,-87.443000,112.080000
13.012,0.488000,-0.929000,-0.458000,-27.061000,65.534000,-87.443000,112.080000
13.040,0.488000,-0.929000,-0.458000,-27.061000,65.534000,-87.443000,112.080000
13.062,0.488000,-0.929000,-0.458000,-27.061000,65.534000,-87.443000,112.080000
13.084,0.488000,-0.929000,-0.458000,-27.061000,65.534000,-87.443000,112.080000
13.112,0.488000,-0.929000,-0.458000,-27.061000,65.534000,-87.443000,112.080000
13.134,0.488000,-0.929000,-0.458000,-27.061000,65.534000,-87.443000,112.080000
13.157,0.488000,-0.929000,-0.458000,-27.061000,65.534000,-87.443000,112.080000
13.184,0.488000,-0.929000,-0.458000,-27.061000,65.534000,-87.443000,112.080000
13.207,0.488000,-0.929000,-0.458000,-27.061000,65.534000,-87.443000,112.080000
13.229,0.488000,-0.929000,-0.458000,-27.061000,65.534000,-87.443000,112.080000
13.253,0.488000,-0.929000,-0.458000,-27.061000,65.534000,-87.443000,112.080000
13.279,0.488000,-0.929000,-0.458000,-27.061000,65.534000,-87.443000,112.080000
13.303,0.488000,-0.929000,-0.458000,-27.061000,65.534000,-87.443000,112.080000
13.324,0.488000,-0.929000,-0.458000,-27.061000,65.534000,-87.443000,112.080000
13.353,0.488000,-0.929000,-0.458000,-27.061000,65.534000,-87.443000,112.080000
13.374,0.488000,-0.929000,-0.458000,-27.061000,65.534000,-87.443000,112.080000
13.395,0.488000,-0.929000,-0.458000,-27.061000,65.534000,-87.443000,112.080000
13.423,0.488000,-0.929000,-0.458000,-27.061000,65.534000,-87.443000,112.080000
13.445,0.488000,-0.929000,-0.458000,-27.061000,65.534000,-87.443000,112.080000
13.469,0.488000,-0.929000,-0.458000,-27.061000,65.534000,-87.443000,112.080000
13.495,0.488000,-0.929000,-0.458000,-27.061000,65.534000,-87.443000,112.080000
13.518,0.488000,-0.929000,-0.458000,-27.061000,65.534000,-87.443000,112.080000
13.540,0.488000,-0.929000,-0.458000,-27.061000,65.534000,-87.443000,112.080000
13.568,0.488000,-0.929000,-0.458000,-27.061000,65.534000,-87.443000,112.080000
13.590,0.488000,-0.929000,-0.458000,-27.061000,65.534000,-87.443000,112.080000
13.613,0.488000,-0.929000,-0.458000,-27.061000,65.534000,-87.443000,112.080000
13.640,0.488000,-0.929000,-0.458000,-27.061000,65.534000,-87.443000,112.080000
13.663,0.488000,-0.929000,-0.458000,-27.061000,65.534000,-87.443000,112.080000
13.684,0.488000,-0.929000,-0.458000,-27.061000,65.534000,-87.443000,112.080000
13.712,0.488000,-0.929000,-0.458000,-27.061000,65.534000,-87.443000,112.080000
13.734,0.488000,-0.929000,-0.458000,-27.061000,65.534000,-87.443000,112.080000
13.757,0.488000,-0.929000,-0.458000,-27.061000,65.534000,-87.443000,112.080000
13.784,0.488000,-0.929000,-0.458000,-27.061000,65.534000,-87.443000,112.080000
13.807,0.488000,-0.929000,-0.458000,-27.061000,65.534000,-87.443000,112.080000
13.828,0.488000,-0.929000,-0.458000,-27.061000,65.534000,-87.443000,112.080000
13.857,0.488000,-0.929000,-0.458000,-27.061000,65.534000,-87.443000,112.080000
13.878,0.488000,-0.929000,-0.458000,-27.061000,65.534000,-87.443000,112.080000
13.903,0.488000,-0.929000,-0.458000,-27.061000,65.534000,-87.443000,112.080000
13.928,0.488000,-0.929000,-0.458000,-27.061000,65.534000,-87.443000,112.080000
13.952,0.488000,-0.929000,-0.458000,-27.061000,65.534000,-87.443000,112.080000
13.974,0.488000,-0.929000,-0.458000,-27.061000,65.534000,-87.443000,112.080000
14.002,0.488000,-0.929000,-0.458000,-27.061000,65.534000,-87.443000,112.080000
14.024,0.488000,-0.929000,-0.458000,-27.061000,65.534000,-87.443000,112.080000
14.045,0.488000,-0.929000,-0.458000,-27.061000,65.534000,-87.443000,112.080000
14.073,0.488000,-0.929000,-0.458000,-27.061000,65.534000,-87.443000,112.080000
14.095,0.488000,-0.929000,-0.458000,-27.061000,65.534000,-87.443000,112.080000
14.118,0.488000,-0.929000,-0.458000,-27.061000,65.534000,-87.443000,112.080000
14.145,0.488000,-0.929000,-0.458000,-27.061000,65.534000,-87.443000,112.080000
14.168,0.488000,-0.929000,-0.458000,-27.061000,65.534000,-87.443000,112.080000
14.190,0.488000,-0.929000,-0.458000,-27.061000,65.534000,-87.443000,112.080000
14.218,0.488000,-0.929000,-0.458000,-27.061000,65.534000,-87.443000,112.080000
14.240,0.488000,-0.929000,-0.458000,-27.061000,65.534000,-87.443000,112.080000
14.262,0.488000,-0.929000,-0.458000,-27.061000,65.534000,-87.443000,112.080000
14.290,0.488000,-0.929000,-0.458000,-27.061000,65.534000,-87.443000,112.080000
14.313,0.488000,-0.929000,-0.458000,-27.061000,65.534000,-87.443000,112.080000
14.334,0.488000,-0.929000,-0.458000,-27.061000,65.534000,-87.443000,112.080000
14.362,0.488000,-0.929000,-0.458000,-27.061000,65.534000,-87.443000,112.080000
14.384,0.488000,-0.929000,-0.458000,-27.061000,65.534000,-87.443000,112.080000
14.407,0.488000,-0.929000,-0.458000,-27.061000,65.534000,-87.443000,112.080000
14.434,0.488000,-0.929000,-0.458000,-27.061000,65.534000,-87.443000,112.080000
14.457,0.488000,-0.929000,-0.458000,-27.061000,65.534000,-87.443000,112.080000
14.479,0.488000,-0.929000,-0.458000,-27.061000,65.534000,-87.443000,112.080000
14.507,0.488000,-0.929000,-0.458000,-27.061000,65.534000,-87.443000,112.080000
14.528,0.488000,-0.929000,-0.458000,-27.061000,65.534000,-87.443000,112.080000
14.553,0.488000,-0.929000,-0.458000,-27.061000,65.534000,-87.443000,112.080000
14.578,0.488000,-0.929000,-0.458000,-27.061000,65.534000,-87.443000,112.080000
14.603,0.488000,-0.929000,-0.458000,-27.061000,65.534000,-87.443000,112.080000
14.624,0.488000,-0.929000,-0.458000,-27.061000,65.534000,-87.443000,112.080000
14.652,0.488000,-0.929000,-0.458000,-27.061000,65.534000,-87.443000,112.080000
14.674,0.488000,-0.929000,-0.458000,-27.061000,65.534000,-87.443000,112.080000
14.695,0.488000,-0.929000,-0.458000,-27.061000,65.534000,-87.443000,112.080000
14.723,0.488000,-0.929000,-0.458000,-27.061000,65.534000,-87.443000,112.080000
14.745,0.488000,-0.929000,-0.458000,-27.061000,65.534000,-87.443000,112.080000
14.768,0.488000,-0.929000,-0.458000,-27.061000,65.534000,-87.443000,112.080000
14.790,0.488000,-0.929000,-0.458000,-27.061000,65.534000,-87.443000,112.080000
14.818,0.488000,-0.929000,-0.458000,-27.061000,65.534000,-87.443000,112.080000
14.840,0.488000,-0.929000,-0.458000,-27.061000,65.534000,-87.443000,112.080000
14.872,0.488000,-0.929000,-0.458000,-27.061000,65.534000,-87.443000,112.080000
14.890,0.488000,-0.929000,-0.458000,-27.061000,65.534000,-87.443000,112.080000
14.912,0.488000,-0.929000,-0.458000,-27.061000,65.534000,-87.443000,112.080000
14.934,0.488000,-0.929000,-0.458000,-27.061000,65.534000,-87.443000,112.080000
14.962,0.488000,-0.929000,-0.458000,-27.061000,65.534000,-87.443000,112.080000
14.984,0.488000,-0.929000,-0.458000,-27.061000,65.534000,-87.443000,112.080000
15.007,0.488000,-0.929000,-0.458000,-27.061000,65.534000,-87.443000,112.080000
15.034,0.488000,-0.929000,-0.458000,-27.061000,65.534000,-87.443000,112.080000
15.057,0.488000,-0.929000,-0.458000,-27.061000,65.534000,-87.443000,112.080000
15.079,0.488000,-0.929000,-0.458000,-27.061000,65.534000,-87.443000,112.080000
15.107,0.488000,-0.929000,-0.458000,-27.061000,65.534000,-87.443000,112.080000
15.128,0.488000,-0.929000,-0.458000,-27.061000,65.534000,-87.443000,112.080000
15.153,0.488000,-0.929000,-0.458000,-27.061000,65.534000,-87.443000,112.080000
15.178,0.488000,-0.929000,-0.458000,-27.061000,65.534000,-87.443000,112.080000
15.202,0.488000,-0.929000,-0.458000,-27.061000,65.534000,-87.443000,112.080000
15.223,0.488000,-0.929000,-0.458000,-27.061000,65.534000,-87.443000,112.080000
15.252,0.488000,-0.929000,-0.458000,-27.061000,65.534000,-87.443000,112.080000
15.274,0.488000,-0.929000,-0.458000,-27.061000,65.534000,-87.443000,112.080000
15.295,0.488000,-0.929000,-0.458000,-27.061000,65.534000,-87.443000,112.080000
15.324,0.488000,-0.929000,-0.458000,-27.061000,65.534000,-87.443000,112.080000
15.345,0.488000,-0.929000,-0.458000,-27.061000,65.534000,-87.443000,112.080000
15.368,0.488000,-0.929000,-0.458000,-27.061000,65.534000,-87.443000,112.080000
15.395,0.488000,-0.929000,-0.458000,-27.061000,65.534000,-87.443000,112.080000
15.418,0.488000,-0.929000,-0.458000,-27.061000,65.534000,-87.443000,112.080000
15.440,0.488000,-0.929000,-0.458000,-27.061000,65.534000,-87.443000,112.080000
15.468,0.488000,-0.929000,-0.458000,-27.061000,65.534000,-87.443000,112.080000
15.490,0.488000,-0.929000,-0.458000,-27.061000,65.534000,-87.443000,112.080000
15.512,0.488000,-0.929000,-0.458000,-27.061000,65.534000,-87.443000,112.080000
15.539,0.488000,-0.929000,-0.458000,-27.061000,65.534000,-87.443000,112.080000
15.562,0.488000,-0.929000,-0.458000,-27.061000,65.534000,-87.443000,112.080000
15.584,0.488000,-0.929000,-0.458000,-27.061000,65.534000,-87.443000,112.080000
15.612,0.488000,-0.929000,-0.458000,-27.061000,65.534000,-87.443000,112.080000
15.634,0.488000,-0.929000,-0.458000,-27.061000,65.534000,-87.443000,112.080000
15.658,0.488000,-0.929000,-0.458000,-27.061000,65.534000,-87.443000,112.080000
15.684,0.488000,-0.929000,-0.458000,-27.061000,65.534000,-87.443000,112.080000
15.707,0.488000,-0.929000,-0.458000,-27.061000,65.534000,-87.443000,112.080000
15.729,0.488000,-0.929000,-0.458000,-27.061000,65.534000,-87.443000,112.080000
15.757,0.488000,-0.929000,-0.458000,-27.061000,65.534000,-87.443000,112.080000
15.779,0.488000,-0.929000,-0.458000,-27.061000,65.534000,-87.443000,112.080000
15.803,0.488000,-0.929000,-0.458000,-27.061000,65.534000,-87.443000,112.080000
15.828,0.488000,-0.929000,-0.458000,-27.061000,65.534000,-87.443000,112.080000
15.853,0.488000,-0.929000,-0.458000,-27.061000,65.534000,-87.443000,112.080000
15.873,0.488000,-0.929000,-0.458000,-27.061000,65.534000,-87.443000,112.080000
15.902,0.488000,-0.929000,-0.458000,-27.061000,65.534000,-87.443000,112.080000
15.924,0.488000,-0.929000,-0.458000,-27.061000,65.534000,-87.443000,112.080000
15.945,0.488000,-0.929000,-0.458000,-27.061000,65.534000,-87.443000,112.080000
15.973,0.488000,-0.929000,-0.458000,-27.061000,65.534000,-87.443000,112.080000
15.995,0.488000,-0.929000,-0.458000,-27.061000,65.534000,-87.443000,112.080000
16.019,0.488000,-0.929000,-0.458000,-27.061000,65.534000,-87.443000,112.080000
16.045,0.488000,-0.929000,-0.458000,-27.061000,65.534000,-87.443000,112.080000
16.069,0.488000,-0.929000,-0.458000,-27.061000,65.534000,-87.443000,112.080000
16.089,0.488000,-0.929000,-0.458000,-27.061000,65.534000,-87.443000,112.080000
16.118,0.488000,-0.929000,-0.458000,-27.061000,65.534000,-87.443000,112.080000
16.139,0.488000,-0.929000,-0.458000,-27.061000,65.534000,-87.443000,112.080000
16.162,0.488000,-0.929000,-0.458000,-27.061000,65.534000,-87.443000,112.080000
16.189,0.488000,-0.929000,-0.458000,-27.061000,65.534000,-87.443000,112.080000
16.212,0.488000,-0.929000,-0.458000,-27.061000,65.534000,-87.443000,112.080000
16.234,0.488000,-0.929000,-0.458000,-27.061000,65.534000,-87.443000,112.080000
16.262,0.488000,-0.929000,-0.458000,-27.061000,65.534000,-87.443000,112.080000
16.284,0.488000,-0.929000,-0.458000,-27.061000,65.534000,-87.443000,112.080000
16.307,0.488000,-0.929000,-0.458000,-27.061000,65.534000,-87.443000,112.080000
16.328,0.488000,-0.929000,-0.458000,-27.061000,65.534000,-87.443000,112.080000
16.357,0.488000,-0.929000,-0.458000,-27.061000,65.534000,-87.443000,112.080000
16.378,0.488000,-0.929000,-0.458000,-27.061000,65.534000,-87.443000,112.080000
16.403,0.488000,-0.929000,-0.458000,-27.061000,65.534000,-87.443000,112.080000
16.429,0.488000,-0.929000,-0.458000,-27.061000,65.534000,-87.443000,112.080000
16.452,0.488000,-0.929000,-0.458000,-27.061000,65.534000,-87.443000,112.080000
16.482,0.488000,-0.929000,-0.458000,-27.061000,65.534000,-87.443000,112.080000
16.503,0.488000,-0.929000,-0.458000,-27.061000,65.534000,-87.443000,112.080000
16.524,0.488000,-0.929000,-0.458000,-27.061000,65.534000,-87.443000,112.080000
16.545,0.488000,-0.929000,-0.458000,-27.061000,65.534000,-87.443000,112.080000
16.573,0.488000,-0.929000,-0.458000,-27.061000,65.534000,-87.443000,112.080000
16.597,0.488000,-0.929000,-0.458000,-27.061000,65.534000,-87.443000,112.080000
time_sec,ax,ay,az,gx,gy,gz,temp_c
0.030,0.000000,0.000000,0.000000,0.000000,0.000000,0.000000,36.530000
0.030,0.000000,0.000000,0.000000,0.000000,0.000000,0.000000,36.530000
0.030,0.000000,0.000000,0.000000,0.000000,0.000000,0.000000,36.530000
0.033,0.000000,0.000000,0.000000,0.000000,0.000000,0.000000,36.530000
0.038,0.000000,0.000000,0.000000,0.000000,0.000000,0.000000,36.530000
0.050,0.000000,0.000000,0.000000,0.000000,0.000000,0.000000,36.530000
0.055,0.000000,0.000000,0.000000,0.000000,0.000000,0.000000,36.530000
0.066,0.000000,0.000000,0.000000,0.000000,0.000000,0.000000,36.530000
0.072,0.000000,0.000000,0.000000,0.000000,0.000000,0.000000,36.530000
0.083,0.000000,0.000000,0.000000,0.000000,0.000000,0.000000,36.530000
0.088,0.000000,0.000000,0.000000,0.000000,0.000000,0.000000,36.530000
0.100,0.000000,0.000000,0.000000,0.000000,0.000000,0.000000,36.530000
0.106,0.000000,0.000000,0.000000,0.000000,0.000000,0.000000,36.530000
0.112,0.000000,0.000000,0.000000,0.000000,0.000000,0.000000,36.530000
0.124,0.000000,0.000000,0.000000,0.000000,0.000000,0.000000,36.530000
0.128,0.000000,0.000000,0.000000,0.000000,0.000000,0.000000,36.530000
0.139,0.000000,0.000000,0.000000,0.000000,0.000000,0.000000,36.530000
0.145,0.000000,0.000000,0.000000,0.000000,0.000000,0.000000,36.530000
0.155,0.000000,0.000000,0.000000,0.000000,0.000000,0.000000,36.530000
0.160,0.000000,0.000000,0.000000,0.000000,0.000000,0.000000,36.530000
0.172,0.000000,0.000000,0.000000,0.000000,0.000000,0.000000,36.530000
0.177,0.000000,0.000000,0.000000,0.000000,0.000000,0.000000,36.530000
0.188,0.000000,0.000000,0.000000,0.000000,0.000000,0.000000,36.530000
0.194,0.000000,0.000000,0.000000,0.000000,0.000000,0.000000,36.530000
0.205,0.000000,0.000000,0.000000,0.000000,0.000000,0.000000,36.530000
0.212,0.000000,0.000000,0.000000,0.000000,0.000000,0.000000,36.530000
0.223,0.000000,0.000000,0.000000,0.000000,0.000000,0.000000,36.530000
0.227,0.000000,0.000000,0.000000,0.000000,0.000000,0.000000,36.530000
0.238,0.000000,0.000000,0.000000,0.000000,0.000000,0.000000,36.530000
0.244,0.000000,0.000000,0.000000,0.000000,0.000000,0.000000,36.530000
0.255,0.000000,0.000000,0.000000,0.000000,0.000000,0.000000,36.530000
0.261,0.000000,0.000000,0.000000,0.000000,0.000000,0.000000,36.530000
0.272,0.000000,0.000000,0.000000,0.000000,0.000000,0.000000,36.530000
0.277,0.000000,0.000000,0.000000,0.000000,0.000000,0.000000,36.530000
0.288,0.000000,0.000000,0.000000,0.000000,0.000000,0.000000,36.530000
0.294,0.000000,0.000000,0.000000,0.000000,0.000000,0.000000,36.530000
0.305,0.000000,0.000000,0.000000,0.000000,0.000000,0.000000,36.530000
0.312,0.000000,0.000000,0.000000,0.000000,0.000000,0.000000,36.530000
0.322,0.000000,0.000000,0.000000,0.000000,0.000000,0.000000,36.530000
0.327,0.000000,0.000000,0.000000,0.000000,0.000000,0.000000,36.530000
0.338,0.000000,0.000000,0.000000,0.000000,0.000000,0.000000,36.530000
0.344,0.000000,0.000000,0.000000,0.000000,0.000000,0.000000,36.530000
0.356,0.000000,0.000000,0.000000,0.000000,0.000000,0.000000,36.530000
0.361,0.000000,0.000000,0.000000,0.000000,0.000000,0.000000,36.530000
0.367,0.000000,0.000000,0.000000,0.000000,0.000000,0.000000,36.530000
0.377,0.000000,0.000000,0.000000,0.000000,0.000000,0.000000,36.530000
0.383,0.000000,0.000000,0.000000,0.000000,0.000000,0.000000,36.530000
0.394,0.000000,0.000000,0.000000,0.000000,0.000000,0.000000,36.530000
0.400,0.000000,0.000000,0.000000,0.000000,0.000000,0.000000,36.530000
0.411,0.000000,0.000000,0.000000,0.000000,0.000000,0.000000,36.530000
0.417,0.000000,0.000000,0.000000,0.000000,0.000000,0.000000,36.530000
0.427,0.000000,0.000000,0.000000,0.000000,0.000000,0.000000,36.530000
0.433,0.000000,0.000000,0.000000,0.000000,0.000000,0.000000,36.530000
0.444,0.000000,0.000000,0.000000,0.000000,0.000000,0.000000,36.530000
0.450,0.000000,0.000000,0.000000,0.000000,0.000000,0.000000,36.530000
0.461,0.000000,0.000000,0.000000,0.000000,0.000000,0.000000,36.530000
0.467,0.000000,0.000000,0.000000,0.000000,0.000000,0.000000,36.530000
0.477,0.000000,0.000000,0.000000,0.000000,0.000000,0.000000,36.530000
0.483,0.000000,0.000000,0.000000,0.000000,0.000000,0.000000,36.530000
0.494,0.000000,0.000000,0.000000,0.000000,0.000000,0.000000,36.530000
0.500,0.000000,0.000000,0.000000,0.000000,0.000000,0.000000,36.530000
0.511,0.000000,0.000000,0.000000,0.000000,0.000000,0.000000,36.530000
0.516,0.000000,0.000000,0.000000,0.000000,0.000000,0.000000,36.530000
0.527,0.000000,0.000000,0.000000,0.000000,0.000000,0.000000,36.530000
0.533,0.000000,0.000000,0.000000,0.000000,0.000000,0.000000,36.530000
0.544,0.000000,0.000000,0.000000,0.000000,0.000000,0.000000,36.530000
0.550,0.000000,0.000000,0.000000,0.000000,0.000000,0.000000,36.530000
0.560,0.000000,0.000000,0.000000,0.000000,0.000000,0.000000,36.530000
0.566,0.000000,0.000000,0.000000,0.000000,0.000000,0.000000,36.530000
0.577,0.000000,0.000000,0.000000,0.000000,0.000000,0.000000,36.530000
0.583,0.000000,0.000000,0.000000,0.000000,0.000000,0.000000,36.530000
0.594,0.000000,0.000000,0.000000,0.000000,0.000000,0.000000,36.530000
0.600,0.000000,0.000000,0.000000,0.000000,0.000000,0.000000,36.530000
0.610,0.000000,0.000000,0.000000,0.000000,0.000000,0.000000,36.530000
0.616,0.000000,0.000000,0.000000,0.000000,0.000000,0.000000,36.530000
0.627,0.000000,0.000000,0.000000,0.000000,0.000000,0.000000,36.530000
0.633,0.000000,0.000000,0.000000,0.000000,0.000000,0.000000,36.530000
0.638,0.000000,0.000000,0.000000,0.000000,0.000000,0.000000,36.530000
0.650,0.000000,0.000000,0.000000,0.000000,0.000000,0.000000,36.530000
0.656,0.000000,0.000000,0.000000,0.000000,0.000000,0.000000,36.530000
0.666,0.000000,0.000000,0.000000,0.000000,0.000000,0.000000,36.530000
0.672,0.000000,0.000000,0.000000,0.000000,0.000000,0.000000,36.530000
0.683,0.000000,0.000000,0.000000,0.000000,0.000000,0.000000,36.530000
0.689,0.000000,0.000000,0.000000,0.000000,0.000000,0.000000,36.530000
0.703,0.000000,0.000000,0.000000,0.000000,0.000000,0.000000,36.530000
0.706,0.000000,0.000000,0.000000,0.000000,0.000000,0.000000,36.530000
0.728,0.000000,0.000000,0.000000,0.000000,0.000000,0.000000,36.530000
0.729,0.000000,0.000000,0.000000,0.000000,0.000000,0.000000,36.530000
0.733,0.000000,0.000000,0.000000,0.000000,0.000000,0.000000,36.530000
0.738,0.000000,0.000000,0.000000,0.000000,0.000000,0.000000,36.530000
0.751,0.000000,0.000000,0.000000,0.000000,0.000000,0.000000,36.530000
0.756,0.000000,0.000000,0.000000,0.000000,0.000000,0.000000,36.530000
0.767,0.000000,0.000000,0.000000,0.000000,0.000000,0.000000,36.530000
0.772,0.000000,0.000000,0.000000,0.000000,0.000000,0.000000,36.530000
0.783,0.000000,0.000000,0.000000,0.000000,0.000000,0.000000,36.530000
0.788,0.000000,0.000000,0.000000,0.000000,0.000000,0.000000,36.530000
0.800,0.000000,0.000000,0.000000,0.000000,0.000000,0.000000,36.530000
0.805,0.000000,0.000000,0.000000,0.000000,0.000000,0.000000,36.530000
0.816,0.000000,0.000000,0.000000,0.000000,0.000000,0.000000,36.530000
0.822,0.000000,0.000000,0.000000,0.000000,0.000000,0.000000,36.530000
0.833,0.000000,0.000000,0.000000,0.000000,0.000000,0.000000,36.530000
0.838,0.000000,0.000000,0.000000,0.000000,0.000000,0.000000,36.530000
0.850,0.000000,0.000000,0.000000,0.000000,0.000000,0.000000,36.530000
0.855,0.000000,0.000000,0.000000,0.000000,0.000000,0.000000,36.530000
0.866,0.000000,0.000000,0.000000,0.000000,0.000000,0.000000,36.530000
0.872,0.000000,0.000000,0.000000,0.000000,0.000000,0.000000,36.530000
0.883,0.000000,0.000000,0.000000,0.000000,0.000000,0.000000,36.530000
0.888,0.000000,0.000000,0.000000,0.000000,0.000000,0.000000,36.530000
0.894,0.000000,0.000000,0.000000,0.000000,0.000000,0.000000,36.530000
0.906,0.000000,0.000000,0.000000,0.000000,0.000000,0.000000,36.530000
0.911,0.000000,0.000000,0.000000,0.000000,0.000000,0.000000,36.530000
0.922,0.000000,0.000000,0.000000,0.000000,0.000000,0.000000,36.530000
0.927,0.000000,0.000000,0.000000,0.000000,0.000000,0.000000,36.530000
0.938,0.000000,0.000000,0.000000,0.000000,0.000000,0.000000,36.530000
0.944,0.000000,0.000000,0.000000,0.000000,0.000000,0.000000,36.530000
0.956,0.000000,0.000000,0.000000,0.000000,0.000000,0.000000,36.530000
0.961,0.000000,0.000000,0.000000,0.000000,0.000000,0.000000,36.530000
0.972,0.000000,0.000000,0.000000,0.000000,0.000000,0.000000,36.530000
0.977,0.000000,0.000000,0.000000,0.000000,0.000000,0.000000,36.530000
0.988,0.000000,0.000000,0.000000,0.000000,0.000000,0.000000,36.530000
0.994,0.000000,0.000000,0.000000,0.000000,0.000000,0.000000,36.530000
1.006,0.000000,0.000000,0.000000,0.000000,0.000000,0.000000,36.530000
1.011,0.000000,0.000000,0.000000,0.000000,0.000000,0.000000,36.530000
1.022,0.000000,0.000000,0.000000,0.000000,0.000000,0.000000,36.530000
1.027,0.000000,0.000000,0.000000,0.000000,0.000000,0.000000,36.530000
1.038,0.000000,0.000000,0.000000,0.000000,0.000000,0.000000,36.530000
1.044,0.000000,0.000000,0.000000,0.000000,0.000000,0.000000,36.530000
1.055,0.000000,0.000000,0.000000,0.000000,0.000000,0.000000,36.530000
1.060,0.000000,0.000000,0.000000,0.000000,0.000000,0.000000,36.530000
1.072,0.000000,0.000000,0.000000,0.000000,0.000000,0.000000,36.530000
1.077,0.000000,0.000000,0.000000,0.000000,0.000000,0.000000,36.530000
1.088,0.000000,0.000000,0.000000,0.000000,0.000000,0.000000,36.530000
1.094,0.000000,0.000000,0.000000,0.000000,0.000000,0.000000,36.530000
1.105,0.000000,0.000000,0.000000,0.000000,0.000000,0.000000,36.530000
1.110,0.000000,0.000000,0.000000,0.000000,0.000000,0.000000,36.530000
1.121,0.000000,0.000000,0.000000,0.000000,0.000000,0.000000,36.530000
1.127,0.000000,0.000000,0.000000,0.000000,0.000000,0.000000,36.530000
1.138,0.000000,0.000000,0.000000,0.000000,0.000000,0.000000,36.530000
1.144,0.000000,0.000000,0.000000,0.000000,0.000000,0.000000,36.530000
1.155,0.000000,0.000000,0.000000,0.000000,0.000000,0.000000,36.530000
1.160,0.000000,0.000000,0.000000,0.000000,0.000000,0.000000,36.530000
1.166,0.000000,0.000000,0.000000,0.000000,0.000000,0.000000,36.530000
1.177,0.000000,0.000000,0.000000,0.000000,0.000000,0.000000,36.530000
1.183,0.000000,0.000000,0.000000,0.000000,0.000000,0.000000,36.530000
1.194,0.000000,0.000000,0.000000,0.000000,0.000000,0.000000,36.530000
1.200,0.000000,0.000000,0.000000,0.000000,0.000000,0.000000,36.530000
1.211,0.000000,0.000000,0.000000,0.000000,0.000000,0.000000,36.530000
1.217,0.000000,0.000000,0.000000,0.000000,0.000000,0.000000,36.530000
1.227,0.000000,0.000000,0.000000,0.000000,0.000000,0.000000,36.530000
1.233,0.000000,0.000000,0.000000,0.000000,0.000000,0.000000,36.530000
1.244,0.000000,0.000000,0.000000,0.000000,0.000000,0.000000,36.530000
1.250,0.000000,0.000000,0.000000,0.000000,0.000000,0.000000,36.530000
1.261,0.000000,0.000000,0.000000,0.000000,0.000000,0.000000,36.530000
1.267,0.000000,0.000000,0.000000,0.000000,0.000000,0.000000,36.530000
1.277,0.000000,0.000000,0.000000,0.000000,0.000000,0.000000,36.530000
1.283,0.000000,0.000000,0.000000,0.000000,0.000000,0.000000,36.530000
1.294,0.000000,0.000000,0.000000,0.000000,0.000000,0.000000,36.530000
1.300,0.000000,0.000000,0.000000,0.000000,0.000000,0.000000,36.530000
1.310,0.000000,0.000000,0.000000,0.000000,0.000000,0.000000,36.530000
1.317,0.000000,0.000000,0.000000,0.000000,0.000000,0.000000,36.530000
1.327,0.000000,0.000000,0.000000,0.000000,0.000000,0.000000,36.530000
1.333,0.000000,0.000000,0.000000,0.000000,0.000000,0.000000,36.530000
1.344,0.000000,0.000000,0.000000,0.000000,0.000000,0.000000,36.530000
1.350,0.000000,0.000000,0.000000,0.000000,0.000000,0.000000,36.530000
1.360,0.000000,0.000000,0.000000,0.000000,0.000000,0.000000,36.530000
1.366,0.000000,0.000000,0.000000,0.000000,0.000000,0.000000,36.530000
1.377,0.000000,0.000000,0.000000,0.000000,0.000000,0.000000,36.530000
1.383,0.000000,0.000000,0.000000,0.000000,0.000000,0.000000,36.530000
1.394,0.000000,0.000000,0.000000,0.000000,0.000000,0.000000,36.530000
1.400,0.000000,0.000000,0.000000,0.000000,0.000000,0.000000,36.530000
1.411,0.000000,0.000000,0.000000,0.000000,0.000000,0.000000,36.530000
1.416,0.000000,0.000000,0.000000,0.000000,0.000000,0.000000,36.530000
1.422,0.000000,0.000000,0.000000,0.000000,0.000000,0.000000,36.530000
1.433,0.000000,0.000000,0.000000,0.000000,0.000000,0.000000,36.530000
1.438,0.000000,0.000000,0.000000,0.000000,0.000000,0.000000,36.530000
1.450,0.000000,0.000000,0.000000,0.000000,0.000000,0.000000,36.530000
1.455,0.000000,0.000000,0.000000,0.000000,0.000000,0.000000,36.530000
1.466,0.000000,0.000000,0.000000,0.000000,0.000000,0.000000,36.530000
1.472,0.000000,0.000000,0.000000,0.000000,0.000000,0.000000,36.530000
1.483,0.000000,0.000000,0.000000,0.000000,0.000000,0.000000,36.530000
1.488,0.000000,0.000000,0.000000,0.000000,0.000000,0.000000,36.530000
1.500,0.000000,0.000000,0.000000,0.000000,0.000000,0.000000,36.530000
1.506,0.000000,0.000000,0.000000,0.000000,0.000000,0.000000,36.530000
1.516,0.000000,0.000000,0.000000,0.000000,0.000000,0.000000,36.530000
1.522,0.000000,0.000000,0.000000,0.000000,0.000000,0.000000,36.530000
1.533,0.000000,0.000000,0.000000,0.000000,0.000000,0.000000,36.530000
1.538,0.000000,0.000000,0.000000,0.000000,0.000000,0.000000,36.530000
1.550,0.000000,0.000000,0.000000,0.000000,0.000000,0.000000,36.530000
1.556,0.000000,0.000000,0.000000,0.000000,0.000000,0.000000,36.530000
1.566,0.000000,0.000000,0.000000,0.000000,0.000000,0.000000,36.530000
1.572,0.000000,0.000000,0.000000,0.000000,0.000000,0.000000,36.530000
1.583,0.000000,0.000000,0.000000,0.000000,0.000000,0.000000,36.530000
1.588,0.000000,0.000000,0.000000,0.000000,0.000000,0.000000,36.530000
1.599,0.000000,0.000000,0.000000,0.000000,0.000000,0.000000,36.530000
1.606,0.000000,0.000000,0.000000,0.000000,0.000000,0.000000,36.530000
1.616,0.000000,0.000000,0.000000,0.000000,0.000000,0.000000,36.530000
1.622,0.000000,0.000000,0.000000,0.000000,0.000000,0.000000,36.530000
1.633,0.000000,0.000000,0.000000,0.000000,0.000000,0.000000,36.530000
1.638,0.000000,0.000000,0.000000,0.000000,0.000000,0.000000,36.530000
1.649,0.000000,0.000000,0.000000,0.000000,0.000000,0.000000,36.530000
1.656,0.000000,0.000000,0.000000,0.000000,0.000000,0.000000,36.530000
1.666,0.000000,0.000000,0.000000,0.000000,0.000000,0.000000,36.530000
1.672,0.000000,0.000000,0.000000,0.000000,0.000000,0.000000,36.530000
1.683,0.000000,0.000000,0.000000,0.000000,0.000000,0.000000,36.530000
1.688,0.000000,0.000000,0.000000,0.000000,0.000000,0.000000,36.530000
1.694,0.000000,0.000000,0.000000,0.000000,0.000000,0.000000,36.530000
1.705,0.000000,0.000000,0.000000,0.000000,0.000000,0.000000,36.530000
1.711,0.000000,0.000000,0.000000,0.000000,0.000000,0.000000,36.530000
1.721,0.000000,0.000000,0.000000,0.000000,0.000000,0.000000,36.530000
1.727,0.000000,0.000000,0.000000,0.000000,0.000000,0.000000,36.530000
1.738,0.000000,0.000000,0.000000,0.000000,0.000000,0.000000,36.530000
1.744,0.000000,0.000000,0.000000,0.000000,0.000000,0.000000,36.530000
1.755,0.000000,0.000000,0.000000,0.000000,0.000000,0.000000,36.530000
1.761,0.000000,0.000000,0.000000,0.000000,0.000000,0.000000,36.530000
1.772,0.000000,0.000000,0.000000,0.000000,0.000000,0.000000,36.530000
1.777,0.000000,0.000000,0.000000,0.000000,0.000000,0.000000,36.530000
1.788,0.000000,0.000000,0.000000,0.000000,0.000000,0.000000,36.530000
1.794,0.000000,0.000000,0.000000,0.000000,0.000000,0.000000,36.530000
1.805,0.000000,0.000000,0.000000,0.000000,0.000000,0.000000,36.530000
1.811,0.000000,0.000000,0.000000,0.000000,0.000000,0.000000,36.530000
1.821,0.000000,0.000000,0.000000,0.000000,0.000000,0.000000,36.530000
1.827,0.000000,0.000000,0.000000,0.000000,0.000000,0.000000,36.530000
1.838,0.000000,0.000000,0.000000,0.000000,0.000000,0.000000,36.530000
1.844,0.000000,0.000000,0.000000,0.000000,0.000000,0.000000,36.530000
1.855,0.000000,0.000000,0.000000,0.000000,0.000000,0.000000,36.530000
1.861,0.000000,0.000000,0.000000,0.000000,0.000000,0.000000,36.530000
1.871,0.000000,0.000000,0.000000,0.000000,0.000000,0.000000,36.530000
1.877,0.000000,0.000000,0.000000,0.000000,0.000000,0.000000,36.530000
1.888,0.000000,0.000000,0.000000,0.000000,0.000000,0.000000,36.530000
1.894,0.000000,0.000000,0.000000,0.000000,0.000000,0.000000,36.530000
1.905,0.000000,0.000000,0.000000,0.000000,0.000000,0.000000,36.530000
1.911,0.000000,0.000000,0.000000,0.000000,0.000000,0.000000,36.530000
1.921,0.000000,0.000000,0.000000,0.000000,0.000000,0.000000,36.530000
1.927,0.000000,0.000000,0.000000,0.000000,0.000000,0.000000,36.530000
1.938,0.000000,0.000000,0.000000,0.000000,0.000000,0.000000,36.530000
1.944,0.000000,0.000000,0.000000,0.000000,0.000000,0.000000,36.530000
1.951,0.000000,0.000000,0.000000,0.000000,0.000000,0.000000,36.530000
1.961,0.000000,0.000000,0.000000,0.000000,0.000000,0.000000,36.530000
1.967,0.000000,0.000000,0.000000,0.000000,0.000000,0.000000,36.530000
1.977,0.000000,0.000000,0.000000,0.000000,0.000000,0.000000,36.530000
1.983,0.000000,0.000000,0.000000,0.000000,0.000000,0.000000,36.530000
1.994,0.000000,0.000000,0.000000,0.000000,0.000000,0.000000,36.530000
2.000,0.000000,0.000000,0.000000,0.000000,0.000000,0.000000,36.530000
2.010,0.000000,0.000000,0.000000,0.000000,0.000000,0.000000,36.530000
2.017,0.000000,0.000000,0.000000,0.000000,0.000000,0.000000,36.530000
2.027,0.000000,0.000000,0.000000,0.000000,0.000000,0.000000,36.530000
2.033,0.000000,0.000000,0.000000,0.000000,0.000000,0.000000,36.530000
2.044,0.000000,0.000000,0.000000,0.000000,0.000000,0.000000,36.530000
2.050,0.000000,0.000000,0.000000,0.000000,0.000000,0.000000,36.530000
2.061,0.000000,0.000000,0.000000,0.000000,0.000000,0.000000,36.530000
2.067,0.000000,0.000000,0.000000,0.000000,0.000000,0.000000,36.530000
2.077,0.000000,0.000000,0.000000,0.000000,0.000000,0.000000,36.530000
2.083,0.000000,0.000000,0.000000,0.000000,0.000000,0.000000,36.530000
2.094,0.000000,0.000000,0.000000,0.000000,0.000000,0.000000,36.530000
2.100,0.000000,0.000000,0.000000,0.000000,0.000000,0.000000,36.530000
2.111,0.000000,0.000000,0.000000,0.000000,0.000000,0.000000,36.530000
2.117,0.000000,0.000000,0.000000,0.000000,0.000000,0.000000,36.530000
2.127,0.000000,0.000000,0.000000,0.000000,0.000000,0.000000,36.530000
2.133,0.000000,0.000000,0.000000,0.000000,0.000000,0.000000,36.530000
2.144,0.000000,0.000000,0.000000,0.000000,0.000000,0.000000,36.530000
2.151,0.000000,0.000000,0.000000,0.000000,0.000000,0.000000,36.530000
2.160,0.000000,0.000000,0.000000,0.000000,0.000000,0.000000,36.530000
2.166,0.000000,0.000000,0.000000,0.000000,0.000000,0.000000,36.530000
2.177,0.000000,0.000000,0.000000,0.000000,0.000000,0.000000,36.530000
2.183,0.000000,0.000000,0.000000,0.000000,0.000000,0.000000,36.530000
2.194,0.000000,0.000000,0.000000,0.000000,0.000000,0.000000,36.530000
2.200,0.000000,0.000000,0.000000,0.000000,0.000000,0.000000,36.530000
2.210,0.000000,0.000000,0.000000,0.000000,0.000000,0.000000,36.530000
2.216,0.000000,0.000000,0.000000,0.000000,0.000000,0.000000,36.530000
2.221,0.000000,0.000000,0.000000,0.000000,0.000000,0.000000,36.530000
2.233,0.000000,0.000000,0.000000,0.000000,0.000000,0.000000,36.530000
2.238,0.000000,0.000000,0.000000,0.000000,0.000000,0.000000,36.530000
2.251,0.000000,0.000000,0.000000,0.000000,0.000000,0.000000,36.530000
2.255,0.000000,0.000000,0.000000,0.000000,0.000000,0.000000,36.530000
2.266,0.000000,0.000000,0.000000,0.000000,0.000000,0.000000,36.530000
2.272,0.000000,0.000000,0.000000,0.000000,0.000000,0.000000,36.530000
2.283,0.000000,0.000000,0.000000,0.000000,0.000000,0.000000,36.530000
2.288,0.000000,0.000000,0.000000,0.000000,0.000000,0.000000,36.530000
2.300,0.000000,0.000000,0.000000,0.000000,0.000000,0.000000,36.530000
2.306,0.000000,0.000000,0.000000,0.000000,0.000000,0.000000,36.530000
2.316,0.000000,0.000000,0.000000,0.000000,0.000000,0.000000,36.530000
2.322,0.000000,0.000000,0.000000,0.000000,0.000000,0.000000,36.530000
2.333,0.000000,0.000000,0.000000,0.000000,0.000000,0.000000,36.530000
2.338,0.000000,0.000000,0.000000,0.000000,0.000000,0.000000,36.530000
2.350,0.000000,0.000000,0.000000,0.000000,0.000000,0.000000,36.530000
2.355,0.000000,0.000000,0.000000,0.000000,0.000000,0.000000,36.530000
2.366,0.000000,0.000000,0.000000,0.000000,0.000000,0.000000,36.530000
2.372,0.000000,0.000000,0.000000,0.000000,0.000000,0.000000,36.530000
2.383,0.000000,0.000000,0.000000,0.000000,0.000000,0.000000,36.530000
2.388,0.000000,0.000000,0.000000,0.000000,0.000000,0.000000,36.530000
2.400,0.000000,0.000000,0.000000,0.000000,0.000000,0.000000,36.530000
2.405,0.000000,0.000000,0.000000,0.000000,0.000000,0.000000,36.530000
2.416,0.000000,0.000000,0.000000,0.000000,0.000000,0.000000,36.530000
2.421,0.000000,0.000000,0.000000,0.000000,0.000000,0.000000,36.530000
2.432,0.000000,0.000000,0.000000,0.000000,0.000000,0.000000,36.530000
2.438,0.000000,0.000000,0.000000,0.000000,0.000000,0.000000,36.530000
2.449,0.000000,0.000000,0.000000,0.000000,0.000000,0.000000,36.530000
2.455,0.000000,0.000000,0.000000,0.000000,0.000000,0.000000,36.530000
2.467,0.000000,0.000000,0.000000,0.000000,0.000000,0.000000,36.530000
2.472,0.000000,0.000000,0.000000,0.000000,0.000000,0.000000,36.530000
2.477,0.000000,0.000000,0.000000,0.000000,0.000000,0.000000,36.530000
2.488,0.000000,0.000000,0.000000,0.000000,0.000000,0.000000,36.530000
2.494,0.000000,0.000000,0.000000,0.000000,0.000000,0.000000,36.530000
2.505,0.000000,0.000000,0.000000,0.000000,0.000000,0.000000,36.530000
2.511,0.000000,0.000000,0.000000,0.000000,0.000000,0.000000,36.530000
2.521,0.000000,0.000000,0.000000,0.000000,0.000000,0.000000,36.530000
2.527,0.000000,0.000000,0.000000,0.000000,0.000000,0.000000,36.530000
2.538,0.000000,0.000000,0.000000,0.000000,0.000000,0.000000,36.530000
2.544,0.000000,0.000000,0.000000,0.000000,0.000000,0.000000,36.530000
2.555,0.000000,0.000000,0.000000,0.000000,0.000000,0.000000,36.530000
2.561,0.000000,0.000000,0.000000,0.000000,0.000000,0.000000,36.530000
2.571,0.000000,0.000000,0.000000,0.000000,0.000000,0.000000,36.530000
2.577,0.000000,0.000000,0.000000,0.000000,0.000000,0.000000,36.530000
2.588,0.000000,0.000000,0.000000,0.000000,0.000000,0.000000,36.530000
2.594,0.000000,0.000000,0.000000,0.000000,0.000000,0.000000,36.530000
2.605,0.000000,0.000000,0.000000,0.000000,0.000000,0.000000,36.530000
2.610,0.000000,0.000000,0.000000,0.000000,0.000000,0.000000,36.530000
2.622,0.000000,0.000000,0.000000,0.000000,0.000000,0.000000,36.530000
2.627,0.000000,0.000000,0.000000,0.000000,0.000000,0.000000,36.530000
2.638,0.000000,0.000000,0.000000,0.000000,0.000000,0.000000,36.530000
2.644,0.000000,0.000000,0.000000,0.000000,0.000000,0.000000,36.530000
2.655,0.000000,0.000000,0.000000,0.000000,0.000000,0.000000,36.530000
2.660,0.000000,0.000000,0.000000,0.000000,0.000000,0.000000,36.530000
2.672,0.000000,0.000000,0.000000,0.000000,0.000000,0.000000,36.530000
2.677,0.000000,0.000000,0.000000,0.000000,0.000000,0.000000,36.530000
2.688,0.000000,0.000000,0.000000,0.000000,0.000000,0.000000,36.530000
2.694,0.000000,0.000000,0.000000,0.000000,0.000000,0.000000,36.530000
2.705,0.000000,0.000000,0.000000,0.000000,0.000000,0.000000,36.530000
2.710,0.000000,0.000000,0.000000,0.000000,0.000000,0.000000,36.530000
2.721,0.000000,0.000000,0.000000,0.000000,0.000000,0.000000,36.530000
2.727,0.000000,0.000000,0.000000,0.000000,0.000000,0.000000,36.530000
2.738,0.000000,0.000000,0.000000,0.000000,0.000000,0.000000,36.530000
2.744,0.000000,0.000000,0.000000,0.000000,0.000000,0.000000,36.530000
2.751,0.000000,0.000000,0.000000,0.000000,0.000000,0.000000,36.530000
2.761,0.000000,0.000000,0.000000,0.000000,0.000000,0.000000,36.530000
2.766,0.000000,0.000000,0.000000,0.000000,0.000000,0.000000,36.530000
2.777,0.000000,0.000000,0.000000,0.000000,0.000000,0.000000,36.530000
2.783,0.000000,0.000000,0.000000,0.000000,0.000000,0.000000,36.530000
2.794,0.000000,0.000000,0.000000,0.000000,0.000000,0.000000,36.530000
2.801,0.000000,0.000000,0.000000,0.000000,0.000000,0.000000,36.530000
2.811,0.000000,0.000000,0.000000,0.000000,0.000000,0.000000,36.530000
2.817,0.000000,0.000000,0.000000,0.000000,0.000000,0.000000,36.530000
2.827,0.000000,0.000000,0.000000,0.000000,0.000000,0.000000,36.530000
2.833,0.000000,0.000000,0.000000,0.000000,0.000000,0.000000,36.530000
2.844,0.000000,0.000000,0.000000,0.000000,0.000000,0.000000,36.530000
2.852,0.000000,0.000000,0.000000,0.000000,0.000000,0.000000,36.530000
2.861,0.000000,0.000000,0.000000,0.000000,0.000000,0.000000,36.530000
2.866,0.000000,0.000000,0.000000,0.000000,0.000000,0.000000,36.530000
2.877,0.000000,0.000000,0.000000,0.000000,0.000000,0.000000,36.530000
2.882,0.000000,0.000000,0.000000,0.000000,0.000000,0.000000,36.530000
2.894,0.000000,0.000000,0.000000,0.000000,0.000000,0.000000,36.530000
2.902,0.000000,0.000000,0.000000,0.000000,0.000000,0.000000,36.530000
2.910,0.000000,0.000000,0.000000,0.000000,0.000000,0.000000,36.530000
2.917,0.000000,0.000000,0.000000,0.000000,0.000000,0.000000,36.530000
2.927,0.000000,0.000000,0.000000,0.000000,0.000000,0.000000,36.530000
2.932,0.000000,0.000000,0.000000,0.000000,0.000000,0.000000,36.530000
2.944,0.000000,0.000000,0.000000,0.000000,0.000000,0.000000,36.530000
