time_sec,ax,ay,az,gx,gy,gz,temp_c
0.019,-0.525000,0.998000,0.588000,-35.794000,30.947000,92.405000,28.720000
0.032,-0.526000,1.020000,0.551000,-44.901000,28.466000,92.649000,28.670000
0.039,-0.507000,1.018000,0.541000,-48.458000,27.908000,94.901000,28.770000
0.051,-0.508000,1.022000,0.522000,-50.260000,20.832000,93.863000,28.670000
0.057,-0.490000,1.005000,0.516000,-50.305000,15.916000,93.221000,28.810000
0.070,-0.425000,1.020000,0.511000,-51.916000,16.366000,91.565000,28.810000
0.084,-0.380000,1.030000,0.502000,-55.366000,22.626000,91.840000,28.860000
0.091,-0.390000,1.007000,0.494000,-58.908000,27.595000,91.305000,28.770000
0.102,-0.377000,0.992000,0.479000,-61.282000,32.267000,90.985000,28.720000
0.109,-0.384000,0.968000,0.451000,-61.763000,36.473000,89.382000,28.810000
0.121,-0.378000,0.969000,0.411000,-53.962000,38.725000,87.405000,28.770000
0.133,-0.386000,0.943000,0.392000,-46.023000,41.267000,87.107000,28.860000
0.140,-0.414000,0.936000,0.389000,-37.275000,40.519000,85.656000,28.810000
0.153,-0.434000,0.931000,0.398000,-30.229000,36.595000,81.611000,28.810000
0.160,-0.412000,0.922000,0.419000,-25.847000,35.153000,78.382000,28.950000
0.172,-0.442000,0.898000,0.397000,-24.160000,30.275000,74.748000,28.860000
0.178,-0.409000,0.936000,0.411000,-25.916000,29.115000,67.473000,28.810000
0.190,-0.388000,0.891000,0.411000,-23.153000,27.679000,62.519000,28.910000
0.203,-0.374000,0.898000,0.414000,-21.290000,21.534000,59.511000,28.810000
0.210,-0.364000,0.903000,0.445000,-19.076000,10.931000,57.710000,28.860000
0.225,-0.324000,0.925000,0.489000,-19.137000,2.679000,55.427000,28.770000
0.230,-0.260000,0.987000,0.543000,-21.359000,1.160000,58.634000,28.860000
0.241,-0.247000,1.006000,0.560000,-22.565000,3.221000,60.702000,28.810000
0.250,-0.242000,1.010000,0.575000,-23.939000,9.679000,60.031000,28.860000
0.261,-0.252000,1.004000,0.565000,-23.092000,13.023000,58.031000,28.860000
0.273,-0.262000,1.002000,0.553000,-20.084000,15.046000,54.511000,28.910000
0.282,-0.253000,1.001000,0.529000,-20.198000,18.908000,50.038000,28.810000
0.293,-0.270000,0.987000,0.493000,-20.794000,19.328000,46.969000,28.860000
0.299,-0.271000,0.960000,0.468000,-18.924000,17.565000,41.542000,28.860000
0.311,-0.241000,0.935000,0.454000,-16.122000,14.534000,37.191000,28.810000
0.318,-0.192000,0.947000,0.450000,-11.176000,9.450000,33.229000,28.810000
0.332,-0.119000,1.017000,0.471000,-7.885000,8.656000,35.802000,28.910000
0.343,-0.103000,1.046000,0.480000,-4.389000,11.748000,39.511000,28.860000
0.351,-0.119000,1.046000,0.492000,-0.397000,17.023000,42.038000,28.860000
0.362,-0.170000,1.004000,0.488000,4.466000,19.092000,43.435000,28.810000
0.369,-0.235000,1.001000,0.477000,8.969000,15.931000,43.412000,28.720000
0.383,-0.226000,0.991000,0.478000,13.519000,11.122000,39.962000,28.770000
0.391,-0.226000,0.977000,0.472000,17.718000,4.939000,34.366000,28.770000
0.402,-0.193000,0.983000,0.482000,20.466000,3.344000,28.412000,28.860000
0.408,-0.137000,0.991000,0.485000,21.473000,4.901000,25.115000,28.810000
0.421,-0.111000,0.982000,0.477000,22.725000,8.198000,22.954000,28.860000
0.433,-0.110000,0.957000,0.469000,25.305000,14.427000,23.366000,28.860000
0.441,-0.115000,0.940000,0.451000,26.916000,18.702000,24.580000,28.910000
0.452,-0.124000,0.934000,0.430000,29.221000,22.382000,25.046000,28.810000
0.459,-0.134000,0.937000,0.435000,31.656000,25.618000,23.489000,28.810000
0.472,-0.154000,0.938000,0.440000,36.244000,24.580000,20.687000,28.770000
0.479,-0.151000,0.929000,0.456000,40.069000,25.107000,16.420000,28.770000
0.492,-0.161000,0.953000,0.468000,40.427000,23.557000,13.252000,28.810000
0.499,-0.150000,0.949000,0.466000,39.382000,21.687000,11.611000,28.720000
0.510,-0.165000,0.938000,0.461000,36.351000,19.794000,11.580000,28.770000
0.523,-0.161000,0.931000,0.461000,32.061000,17.489000,11.931000,28.860000
0.532,-0.171000,0.903000,0.449000,28.511000,13.603000,13.511000,28.810000
0.542,-0.166000,0.879000,0.431000,27.450000,9.275000,13.359000,28.910000
0.550,-0.153000,0.864000,0.418000,26.427000,6.366000,13.786000,28.860000
0.561,-0.156000,0.839000,0.411000,25.603000,4.107000,14.580000,28.860000
0.569,-0.153000,0.814000,0.388000,25.847000,2.008000,14.504000,28.770000
0.582,-0.155000,0.799000,0.387000,25.389000,-0.687000,14.252000,28.910000
0.588,-0.157000,0.794000,0.375000,24.595000,-2.649000,14.092000,28.720000
0.601,-0.166000,0.795000,0.355000,23.992000,-5.718000,13.802000,28.860000
0.613,-0.154000,0.794000,0.350000,22.878000,-7.221000,13.305000,28.770000
0.620,-0.133000,0.800000,0.330000,21.115000,-5.344000,14.893000,28.810000
0.634,-0.124000,0.783000,0.328000,20.282000,-3.183000,15.504000,28.810000
0.639,-0.141000,0.787000,0.325000,19.504000,-1.427000,16.298000,28.770000
0.651,-0.141000,0.762000,0.313000,19.626000,-0.771000,16.969000,28.860000
0.658,-0.142000,0.768000,0.311000,20.641000,0.084000,16.626000,28.810000
0.671,-0.140000,0.752000,0.299000,21.252000,1.756000,16.420000,28.810000
0.678,-0.141000,0.759000,0.318000,21.824000,4.351000,13.282000,28.860000
0.692,-0.139000,0.755000,0.317000,21.450000,8.099000,12.198000,28.860000
0.703,-0.151000,0.747000,0.314000,20.206000,9.962000,10.397000,28.910000
0.710,-0.164000,0.730000,0.310000,18.382000,10.725000,8.771000,28.810000
0.722,-0.175000,0.733000,0.312000,16.443000,10.618000,6.580000,28.810000
0.731,-0.165000,0.733000,0.313000,14.023000,10.878000,5.031000,28.860000
0.742,-0.155000,0.743000,0.329000,10.328000,13.733000,1.496000,28.860000
0.749,-0.144000,0.726000,0.338000,9.107000,16.458000,2.763000,28.810000
0.761,-0.168000,0.733000,0.343000,10.031000,15.809000,0.771000,28.810000
0.768,-0.163000,0.743000,0.361000,9.351000,16.427000,-1.603000,28.860000
0.782,-0.191000,0.732000,0.340000,7.649000,15.710000,-1.557000,28.770000
0.788,-0.215000,0.724000,0.322000,5.473000,10.832000,-2.321000,28.810000
0.801,-0.222000,0.712000,0.319000,4.916000,6.046000,-3.916000,28.810000
0.813,-0.240000,0.702000,0.314000,4.137000,0.458000,-4.733000,28.770000
0.820,-0.224000,0.714000,0.305000,4.496000,-2.786000,-8.313000,28.860000
0.833,-0.201000,0.734000,0.308000,5.595000,-2.863000,-10.427000,28.910000
0.840,-0.189000,0.753000,0.327000,5.595000,0.878000,-12.046000,28.810000
0.852,-0.192000,0.770000,0.344000,6.794000,3.824000,-14.015000,28.770000
0.859,-0.214000,0.787000,0.357000,6.275000,4.794000,-15.069000,28.770000
0.871,-0.232000,0.804000,0.358000,5.832000,4.580000,-15.695000,28.860000
0.878,-0.241000,0.807000,0.370000,5.084000,4.412000,-18.313000,28.810000
0.891,-0.243000,0.823000,0.367000,3.252000,3.412000,-22.359000,28.910000
0.899,-0.253000,0.826000,0.357000,2.031000,2.069000,-27.557000,28.770000
0.910,-0.240000,0.825000,0.366000,1.542000,-0.695000,-32.908000,28.770000
0.922,-0.219000,0.825000,0.355000,1.450000,-2.382000,-36.863000,28.770000
0.932,-0.176000,0.861000,0.354000,0.634000,-4.107000,-37.389000,28.810000
0.942,-0.149000,0.885000,0.373000,-1.489000,-3.145000,-34.244000,28.860000
0.949,-0.159000,0.918000,0.385000,-3.214000,-3.496000,-29.412000,28.860000
0.961,-0.196000,0.960000,0.397000,-4.985000,-3.206000,-25.481000,28.810000
0.968,-0.218000,0.967000,0.412000,-6.191000,-3.389000,-25.870000,28.810000
0.984,-0.252000,0.957000,0.384000,-7.985000,-1.672000,-27.756000,28.770000
0.993,-0.266000,0.921000,0.369000,-8.542000,0.687000,-32.000000,28.860000
1.000,-0.279000,0.907000,0.351000,-6.962000,2.840000,-37.939000,28.860000
1.012,-0.272000,0.881000,0.351000,0.282000,8.084000,-46.229000,28.810000
1.019,-0.228000,0.919000,0.366000,9.183000,20.771000,-52.733000,28.810000
1.031,-0.244000,0.965000,0.379000,15.733000,28.145000,-50.550000,28.860000
1.039,-0.239000,0.997000,0.426000,14.328000,35.122000,-49.008000,28.860000
1.050,-0.260000,1.041000,0.426000,13.305000,40.450000,-46.870000,28.910000
1.063,-0.295000,1.017000,0.425000,12.313000,40.756000,-47.336000,28.810000
1.069,-0.319000,1.009000,0.396000,9.023000,38.840000,-47.084000,28.950000
1.082,-0.352000,0.991000,0.372000,5.046000,35.779000,-48.603000,28.860000
1.089,-0.380000,0.983000,0.359000,1.298000,28.298000,-49.840000,28.770000
1.101,-0.385000,0.969000,0.336000,1.015000,22.366000,-49.618000,28.720000
1.108,-0.390000,0.943000,0.342000,-1.099000,18.832000,-52.389000,28.860000
1.121,-0.371000,0.950000,0.325000,-0.511000,20.382000,-54.481000,28.860000
1.133,-0.374000,0.939000,0.326000,1.366000,22.977000,-60.351000,28.770000
1.140,-0.364000,0.930000,0.312000,3.420000,27.763000,-63.290000,28.810000
1.152,-0.391000,0.908000,0.302000,4.489000,30.641000,-66.252000,28.810000
1.159,-0.402000,0.903000,0.306000,6.183000,30.618000,-69.290000,28.860000
1.171,-0.415000,0.924000,0.312000,8.985000,29.160000,-71.298000,28.770000
1.178,-0.419000,0.921000,0.304000,9.901000,26.229000,-72.817000,28.810000
1.191,-0.427000,0.925000,0.304000,9.046000,21.374000,-77.412000,28.810000
1.203,-0.437000,0.890000,0.305000,7.580000,17.275000,-77.817000,28.860000
1.210,-0.432000,0.872000,0.296000,6.649000,14.664000,-77.550000,28.860000
1.222,-0.422000,0.853000,0.274000,7.344000,13.496000,-77.092000,28.810000
1.231,-0.433000,0.853000,0.274000,9.298000,12.870000,-76.275000,28.810000
1.242,-0.447000,0.830000,0.253000,11.000000,12.786000,-77.153000,28.860000
1.249,-0.467000,0.825000,0.246000,13.504000,11.359000,-79.977000,28.860000
1.261,-0.515000,0.800000,0.229000,15.496000,5.695000,-81.969000,28.860000
1.268,-0.532000,0.785000,0.224000,18.313000,1.924000,-89.046000,28.810000
1.282,-0.539000,0.771000,0.226000,19.214000,2.244000,-93.588000,28.910000
1.293,-0.506000,0.799000,0.220000,21.069000,5.626000,-97.137000,28.950000
1.300,-0.474000,0.834000,0.235000,23.160000,11.382000,-94.351000,28.770000
1.312,-0.500000,0.854000,0.247000,25.519000,15.641000,-89.336000,28.810000
1.319,-0.524000,0.890000,0.260000,26.878000,21.260000,-83.145000,28.810000
1.331,-0.567000,0.924000,0.275000,24.519000,26.015000,-76.710000,28.860000
1.338,-0.643000,0.907000,0.288000,21.969000,24.397000,-75.458000,28.860000
1.350,-0.687000,0.880000,0.270000,17.595000,23.313000,-76.908000,28.810000
1.362,-0.722000,0.826000,0.252000,10.420000,17.687000,-81.939000,28.810000
1.369,-0.678000,0.774000,0.230000,4.901000,10.779000,-87.115000,28.810000
1.382,-0.614000,0.760000,0.204000,3.450000,5.855000,-87.718000,28.860000
1.389,-0.566000,0.761000,0.191000,4.046000,5.573000,-83.847000,28.770000
1.401,-0.540000,0.759000,0.187000,5.779000,8.489000,-76.687000,28.810000
1.408,-0.545000,0.774000,0.216000,7.168000,12.382000,-68.924000,28.810000
1.420,-0.587000,0.744000,0.229000,8.359000,15.176000,-65.267000,28.860000
1.433,-0.586000,0.745000,0.240000,9.504000,18.466000,-63.542000,28.860000
1.441,-0.594000,0.748000,0.237000,9.992000,20.168000,-62.053000,28.770000
1.452,-0.633000,0.731000,0.249000,8.969000,19.832000,-62.237000,28.810000
1.459,-0.625000,0.747000,0.241000,3.908000,22.107000,-64.107000,28.860000
1.471,-0.622000,0.730000,0.267000,3.985000,19.435000,-57.252000,28.860000
1.478,-0.659000,0.738000,0.250000,2.305000,17.000000,-53.397000,28.860000
1.492,-0.660000,0.760000,0.237000,2.198000,15.725000,-46.313000,28.810000
1.497,-0.721000,0.691000,0.227000,-3.542000,12.183000,-47.794000,28.910000
1.510,-0.705000,0.677000,0.229000,-5.130000,11.328000,-48.336000,28.860000
1.522,-0.672000,0.679000,0.226000,-4.672000,10.504000,-48.046000,28.770000
1.529,-0.672000,0.648000,0.207000,-4.183000,10.641000,-49.252000,28.910000
1.542,-0.644000,0.652000,0.205000,-2.908000,14.817000,-48.885000,28.910000
1.549,-0.661000,0.680000,0.198000,-2.740000,18.573000,-42.916000,28.770000
1.561,-0.715000,0.651000,0.200000,-4.008000,18.511000,-41.153000,28.860000
1.573,-0.734000,0.649000,0.182000,-2.076000,19.305000,-42.962000,28.810000
1.582,-0.779000,0.608000,0.175000,-2.290000,15.519000,-48.802000,28.910000
1.592,-0.750000,0.607000,0.173000,-0.595000,15.435000,-49.924000,28.810000
1.600,-0.711000,0.607000,0.157000,-0.649000,18.031000,-52.832000,28.950000
1.611,-0.691000,0.611000,0.164000,-0.244000,23.351000,-50.824000,28.860000
1.618,-0.709000,0.609000,0.152000,0.366000,27.588000,-47.588000,28.860000
1.631,-0.765000,0.592000,0.149000,1.656000,28.802000,-44.504000,28.720000
1.643,-0.815000,0.581000,0.151000,2.954000,25.962000,-44.885000,28.770000
1.650,-0.816000,0.584000,0.166000,5.275000,21.672000,-45.901000,28.860000
1.662,-0.823000,0.585000,0.160000,4.962000,16.405000,-45.786000,28.910000
1.669,-0.831000,0.587000,0.154000,3.870000,11.015000,-45.969000,28.910000
1.682,-0.824000,0.541000,0.139000,1.595000,6.550000,-46.191000,28.770000
1.690,-0.820000,0.552000,0.144000,0.626000,5.183000,-44.191000,28.860000
1.702,-0.805000,0.566000,0.153000,3.122000,5.328000,-43.435000,28.770000
1.708,-0.813000,0.549000,0.147000,5.076000,6.595000,-43.893000,28.810000
1.721,-0.816000,0.532000,0.164000,3.832000,9.916000,-46.076000,28.810000
1.734,-0.814000,0.536000,0.172000,2.855000,9.863000,-44.885000,28.770000
1.741,-0.831000,0.506000,0.161000,1.061000,9.214000,-46.672000,28.860000
1.753,-0.820000,0.516000,0.166000,0.206000,8.664000,-46.809000,28.720000
1.759,-0.822000,0.492000,0.166000,-0.221000,6.122000,-46.015000,28.810000
1.772,-0.826000,0.473000,0.163000,0.656000,5.763000,-45.939000,28.860000
1.779,-0.839000,0.472000,0.170000,3.634000,4.336000,-45.580000,28.860000
1.792,-0.881000,0.445000,0.213000,6.664000,2.534000,-47.733000,28.860000
1.800,-0.907000,0.461000,0.236000,6.496000,1.023000,-52.427000,28.810000
1.811,-0.906000,0.500000,0.287000,4.595000,-2.023000,-56.389000,28.810000
1.817,-0.895000,0.510000,0.316000,-0.786000,-4.802000,-60.985000,28.770000
1.832,-0.853000,0.535000,0.306000,-6.695000,-5.282000,-61.176000,28.860000
1.843,-0.854000,0.514000,0.277000,-10.656000,-4.824000,-60.573000,28.720000
1.850,-0.843000,0.496000,0.235000,-15.389000,-1.160000,-57.908000,28.810000
1.861,-0.867000,0.469000,0.188000,-19.656000,4.137000,-53.237000,28.770000
1.868,-0.927000,0.376000,0.126000,-17.985000,3.153000,-54.374000,28.860000
1.882,-0.910000,0.354000,0.110000,-13.344000,6.015000,-59.008000,28.810000
1.893,-0.910000,0.319000,0.107000,-8.443000,5.977000,-59.229000,28.810000
1.900,-0.875000,0.312000,0.111000,-3.580000,7.153000,-63.160000,28.770000
1.912,-0.825000,0.344000,0.135000,-2.351000,10.267000,-59.924000,28.860000
1.919,-0.832000,0.365000,0.130000,-1.115000,12.107000,-53.672000,28.720000
1.932,-0.857000,0.392000,0.120000,-1.664000,13.214000,-44.771000,28.910000
1.939,-0.937000,0.391000,0.109000,-4.160000,10.275000,-36.809000,28.860000
1.950,-0.990000,0.329000,0.088000,-6.275000,3.779000,-37.565000,28.770000
1.963,-0.973000,0.264000,0.068000,-4.267000,-0.641000,-39.405000,28.770000
1.970,-0.918000,0.262000,0.078000,-0.977000,-1.542000,-40.878000,28.810000
1.982,-0.866000,0.281000,0.065000,2.237000,3.634000,-39.038000,28.910000
1.989,-0.880000,0.291000,0.063000,5.740000,10.511000,-34.634000,28.860000
2.002,-0.912000,0.301000,0.080000,6.466000,17.290000,-32.145000,28.860000
2.008,-0.958000,0.325000,0.086000,5.237000,19.450000,-28.031000,28.910000
2.021,-1.000000,0.290000,0.092000,2.733000,14.061000,-29.412000,28.810000
2.033,-0.967000,0.260000,0.094000,1.603000,10.885000,-35.214000,28.860000
2.041,-0.939000,0.242000,0.087000,1.504000,9.176000,-37.687000,28.860000
2.053,-0.897000,0.243000,0.074000,3.687000,11.031000,-38.565000,28.860000
2.059,-0.899000,0.262000,0.060000,8.504000,13.878000,-33.481000,28.720000
2.072,-0.978000,0.241000,0.077000,13.687000,13.718000,-31.664000,28.810000
2.079,-1.057000,0.238000,0.090000,20.053000,9.427000,-33.725000,28.770000
2.092,-1.125000,0.251000,0.114000,20.573000,-2.229000,-37.313000,28.860000
2.097,-1.155000,0.215000,0.110000,17.397000,-14.855000,-51.557000,28.910000
2.110,-1.122000,0.219000,0.105000,12.794000,-21.916000,-65.244000,28.720000
2.122,-1.072000,0.226000,0.081000,10.802000,-27.427000,-72.908000,28.860000
2.131,-0.980000,0.255000,0.070000,12.000000,-24.947000,-74.832000,28.860000
2.142,-0.926000,0.250000,0.104000,14.344000,-17.435000,-70.260000,28.860000
2.148,-0.974000,0.240000,0.138000,21.527000,-12.534000,-65.405000,28.810000
2.160,-0.966000,0.227000,0.180000,22.565000,-8.679000,-69.420000,28.910000
2.172,-0.949000,0.217000,0.220000,21.053000,-7.008000,-70.969000,28.860000
2.179,-0.913000,0.200000,0.217000,16.962000,-3.725000,-72.519000,28.770000
2.192,-0.889000,0.190000,0.207000,12.290000,-3.580000,-70.252000,28.910000
2.199,-0.868000,0.151000,0.179000,7.992000,-5.405000,-68.176000,28.810000
2.211,-0.834000,0.126000,0.159000,8.031000,-6.496000,-63.870000,28.950000
2.218,-0.823000,0.088000,0.154000,10.725000,-7.939000,-59.221000,28.770000
2.232,-0.784000,0.070000,0.157000,10.107000,-3.000000,-53.527000,28.810000
2.242,-0.790000,0.107000,0.171000,9.000000,-2.916000,-44.550000,28.810000
2.249,-0.813000,0.080000,0.180000,6.802000,-3.160000,-39.023000,28.810000
2.262,-0.819000,0.064000,0.180000,5.649000,-2.084000,-33.382000,28.860000
2.269,-0.826000,0.083000,0.151000,4.664000,-2.565000,-27.626000,28.860000
2.282,-0.838000,0.060000,0.141000,4.038000,-2.176000,-23.672000,28.810000
2.289,-0.858000,0.046000,0.127000,5.290000,-0.565000,-19.015000,28.910000
2.301,-0.893000,0.056000,0.145000,6.107000,1.321000,-19.511000,28.860000
2.313,-0.901000,0.038000,0.139000,4.939000,7.183000,-21.580000,28.860000
2.320,-0.930000,0.039000,0.159000,3.244000,9.397000,-22.405000,28.950000
2.333,-0.928000,0.024000,0.128000,2.122000,11.977000,-25.298000,28.810000
2.340,-0.931000,0.058000,0.135000,2.511000,14.267000,-21.885000,28.860000
2.352,-0.984000,0.014000,0.094000,0.099000,9.374000,-19.901000,28.770000
2.358,-0.982000,-0.002000,0.095000,0.405000,5.008000,-19.000000,28.910000
2.371,-0.982000,0.007000,0.081000,1.901000,0.733000,-15.939000,28.810000
2.378,-0.977000,0.009000,0.085000,4.534000,1.687000,-14.298000,28.770000
2.391,-0.984000,-0.001000,0.097000,7.130000,4.084000,-14.099000,28.770000
2.403,-1.002000,0.034000,0.122000,9.366000,8.351000,-14.183000,28.810000
2.410,-1.028000,0.022000,0.131000,8.321000,12.420000,-17.740000,28.720000
2.422,-1.048000,0.010000,0.129000,5.290000,17.473000,-24.664000,28.810000
2.429,-1.057000,-0.022000,0.119000,2.061000,15.962000,-28.458000,28.860000
2.442,-1.015000,-0.046000,0.105000,0.779000,14.183000,-28.702000,28.860000
2.449,-0.986000,-0.054000,0.113000,1.519000,10.214000,-24.931000,28.810000
2.461,-0.994000,-0.077000,0.116000,2.832000,6.260000,-20.420000,28.810000
2.466,-1.007000,-0.060000,0.115000,5.183000,4.656000,-16.794000,28.860000
2.482,-1.031000,-0.054000,0.117000,7.504000,1.901000,-15.435000,28.860000
2.493,-1.028000,-0.079000,0.115000,7.260000,4.221000,-19.618000,28.860000
2.500,-0.984000,-0.042000,0.136000,8.954000,6.710000,-23.267000,28.720000
2.512,-0.978000,-0.036000,0.143000,7.634000,11.496000,-24.069000,28.860000
2.518,-1.000000,-0.031000,0.139000,5.840000,11.130000,-24.038000,28.860000
2.531,-1.050000,-0.018000,0.133000,4.809000,4.618000,-24.023000,28.950000
2.538,-1.074000,-0.049000,0.130000,3.244000,-1.802000,-26.649000,28.810000
2.550,-1.007000,-0.059000,0.119000,3.328000,-3.794000,-30.817000,28.910000
2.562,-0.947000,-0.031000,0.119000,6.046000,-0.588000,-30.466000,28.860000
2.569,-0.944000,-0.029000,0.131000,9.313000,5.023000,-30.550000,28.770000
2.582,-0.968000,-0.006000,0.149000,11.458000,6.305000,-29.595000,28.810000
2.589,-0.998000,0.017000,0.193000,9.947000,7.656000,-27.443000,28.810000
2.601,-1.028000,0.011000,0.189000,5.962000,7.557000,-27.328000,28.770000
2.608,-1.064000,0.022000,0.175000,0.076000,5.603000,-27.885000,28.860000
2.621,-1.082000,-0.013000,0.146000,-2.145000,3.313000,-30.710000,28.860000
2.633,-1.096000,-0.025000,0.128000,-0.046000,-0.954000,-32.611000,28.810000
2.640,-1.090000,-0.042000,0.102000,2.779000,-2.481000,-36.313000,28.810000
2.652,-1.068000,-0.045000,0.102000,7.718000,2.115000,-41.656000,28.860000
2.659,-1.021000,-0.033000,0.091000,13.214000,12.389000,-44.107000,28.860000
2.671,-1.034000,-0.077000,0.082000,19.473000,25.992000,-49.275000,28.770000
2.683,-1.088000,-0.103000,0.083000,19.916000,31.817000,-56.214000,28.910000
2.690,-1.119000,-0.085000,0.105000,20.496000,27.542000,-61.847000,28.860000
2.703,-1.135000,-0.107000,0.122000,16.847000,11.344000,-64.527000,28.860000
2.709,-1.059000,-0.114000,0.119000,14.435000,-0.885000,-65.099000,28.910000
2.721,-0.931000,-0.143000,0.097000,9.634000,-5.031000,-63.740000,28.810000
2.728,-0.867000,-0.216000,0.093000,8.901000,-3.153000,-59.397000,28.810000
2.741,-0.841000,-0.248000,0.053000,13.450000,1.634000,-54.733000,28.860000
2.753,-0.846000,-0.242000,0.049000,16.733000,4.832000,-50.450000,28.950000
2.759,-0.893000,-0.277000,0.058000,20.038000,4.832000,-50.099000,28.810000
2.772,-0.881000,-0.293000,0.091000,20.809000,3.580000,-53.351000,28.810000
2.779,-0.899000,-0.269000,0.117000,20.061000,0.084000,-51.397000,28.860000
2.791,-0.916000,-0.277000,0.163000,19.115000,-6.092000,-49.710000,28.860000
2.804,-0.864000,-0.253000,0.171000,16.786000,-3.153000,-49.878000,28.910000
2.810,-0.853000,-0.216000,0.177000,13.595000,2.534000,-44.672000,28.910000
2.822,-0.911000,-0.218000,0.151000,11.206000,9.748000,-43.267000,28.910000
2.829,-0.999000,-0.214000,0.114000,7.885000,16.053000,-44.542000,28.860000
2.842,-1.048000,-0.267000,0.052000,0.046000,20.588000,-58.542000,28.770000
2.849,-1.037000,-0.257000,0.015000,-3.557000,21.679000,-71.252000,28.860000
2.860,-1.019000,-0.321000,0.007000,-2.069000,18.962000,-82.023000,28.910000
2.872,-0.887000,-0.281000,0.015000,2.832000,18.405000,-86.580000,28.770000
2.879,-0.802000,-0.270000,0.062000,5.267000,23.000000,-82.496000,28.770000
2.892,-0.771000,-0.285000,0.102000,2.137000,33.420000,-73.206000,28.860000
2.900,-0.849000,-0.302000,0.122000,1.183000,33.786000,-64.557000,28.910000
2.911,-0.908000,-0.344000,0.131000,-0.725000,23.351000,-61.061000,28.910000
2.923,-0.851000,-0.422000,0.141000,-5.023000,8.206000,-64.992000,28.860000
2.931,-0.677000,-0.391000,0.154000,-4.954000,-1.847000,-61.305000,28.860000
2.942,-0.560000,-0.405000,0.176000,-5.679000,-5.626000,-49.710000,28.910000
2.950,-0.481000,-0.429000,0.175000,-3.244000,-2.351000,-35.763000,28.910000
2.961,-0.504000,-0.430000,0.188000,-2.649000,5.603000,-18.985000,28.860000
2.968,-0.617000,-0.396000,0.177000,-5.244000,13.588000,-5.939000,28.770000
2.982,-0.751000,-0.409000,0.136000,-8.947000,14.725000,-3.267000,28.910000
2.992,-0.822000,-0.374000,0.101000,-12.634000,13.908000,-0.893000,28.810000
3.001,-0.902000,-0.367000,0.068000,-12.611000,8.969000,-0.847000,28.910000
3.012,-0.972000,-0.365000,0.051000,-14.053000,5.672000,-6.023000,28.860000
3.018,-0.984000,-0.381000,0.049000,-13.527000,6.313000,-10.595000,28.770000
3.032,-1.000000,-0.402000,0.021000,-9.916000,6.573000,-14.534000,28.860000
3.043,-0.991000,-0.395000,0.040000,-6.618000,9.832000,-17.519000,28.810000
3.050,-0.994000,-0.386000,0.056000,-6.977000,13.107000,-20.382000,28.860000
3.062,-1.010000,-0.376000,0.052000,-6.977000,16.710000,-23.420000,28.860000
3.068,-1.014000,-0.381000,0.046000,-8.550000,15.237000,-27.061000,28.810000
3.081,-0.992000,-0.407000,0.040000,-9.511000,12.160000,-30.237000,28.910000
3.088,-0.966000,-0.410000,0.010000,-7.626000,9.198000,-32.855000,28.810000
3.100,-0.939000,-0.451000,-0.005000,-3.351000,5.885000,-33.015000,28.860000
3.112,-0.918000,-0.427000,0.018000,0.153000,8.466000,-30.679000,28.860000
3.119,-0.977000,-0.472000,0.032000,0.924000,5.740000,-33.763000,28.910000
3.132,-0.953000,-0.420000,0.058000,-0.618000,1.962000,-34.893000,28.810000
3.139,-0.913000,-0.451000,0.040000,-4.168000,0.611000,-37.725000,28.860000
3.151,-0.825000,-0.463000,0.026000,-5.542000,-0.695000,-38.786000,28.860000
3.163,-0.794000,-0.463000,0.043000,-4.221000,-5.260000,-35.206000,28.910000
3.170,-0.783000,-0.433000,0.100000,-4.282000,-8.702000,-31.450000,28.910000
3.182,-0.798000,-0.411000,0.161000,-8.298000,-16.412000,-26.618000,28.910000
3.189,-0.798000,-0.383000,0.213000,-15.198000,-18.817000,-26.084000,28.860000
3.201,-0.782000,-0.396000,0.227000,-26.855000,-15.313000,-32.412000,28.770000
3.212,-0.731000,-0.452000,0.193000,-33.229000,-8.557000,-38.183000,28.860000
3.219,-0.679000,-0.496000,0.155000,-37.954000,2.573000,-39.344000,28.810000
3.232,-0.654000,-0.491000,0.115000,-44.008000,17.359000,-36.954000,28.860000
3.239,-0.708000,-0.497000,0.064000,-47.550000,26.489000,-34.763000,28.860000
3.251,-0.725000,-0.531000,0.021000,-47.824000,30.443000,-35.244000,28.910000
3.262,-0.766000,-0.560000,-0.020000,-45.565000,31.679000,-30.634000,28.810000
3.269,-0.822000,-0.556000,-0.063000,-39.710000,26.076000,-23.397000,28.860000
3.282,-0.876000,-0.547000,-0.105000,-34.214000,25.221000,-17.534000,28.770000
3.293,-0.959000,-0.567000,-0.169000,-30.626000,29.069000,-16.076000,28.860000
3.300,-1.033000,-0.587000,-0.203000,-28.847000,30.802000,-27.977000,28.810000
3.312,-0.965000,-0.593000,-0.230000,-24.092000,29.389000,-45.374000,28.810000
3.318,-0.859000,-0.625000,-0.212000,-15.382000,26.885000,-49.740000,28.860000
3.332,-0.810000,-0.633000,-0.176000,-2.679000,24.344000,-42.519000,28.770000
3.342,-0.861000,-0.610000,-0.095000,5.817000,24.237000,-32.550000,28.810000
3.350,-0.983000,-0.621000,-0.031000,7.771000,13.817000,-28.504000,28.910000
3.362,-1.046000,-0.559000,0.042000,7.542000,1.580000,-30.519000,28.770000
3.368,-1.087000,-0.553000,0.073000,2.061000,-10.893000,-37.519000,28.860000
3.382,-1.091000,-0.544000,0.130000,-2.038000,-29.756000,-41.573000,28.860000
3.393,-1.098000,-0.516000,0.163000,-8.229000,-47.069000,-41.061000,28.810000
3.401,-0.992000,-0.577000,0.162000,-9.824000,-59.557000,-52.595000,28.720000
3.412,-0.791000,-0.600000,0.189000,-8.519000,-58.275000,-63.786000,28.860000
3.418,-0.645000,-0.598000,0.219000,-8.160000,-49.855000,-68.885000,28.860000
3.432,-0.543000,-0.561000,0.220000,-16.198000,-37.931000,-68.679000,28.810000
3.442,-0.570000,-0.553000,0.127000,-30.710000,-27.756000,-56.412000,28.810000
3.450,-0.663000,-0.642000,-0.097000,-39.870000,-26.626000,-47.977000,28.860000
3.461,-0.635000,-0.733000,-0.354000,-41.244000,-26.214000,-47.534000,28.770000
3.473,-0.569000,-0.769000,-0.524000,-27.458000,-21.832000,-41.015000,28.910000
3.479,-0.565000,-0.791000,-0.551000,-6.137000,-20.069000,-33.137000,28.810000
3.492,-0.601000,-0.766000,-0.455000,13.229000,-13.557000,-24.595000,28.860000
3.500,-0.629000,-0.687000,-0.310000,25.092000,-8.344000,-19.023000,28.860000
3.510,-0.681000,-0.641000,-0.177000,28.191000,4.672000,-18.992000,28.860000
3.522,-0.774000,-0.687000,-0.097000,27.710000,9.832000,-24.481000,28.810000
3.529,-0.762000,-0.661000,-0.018000,26.527000,5.763000,-29.092000,28.810000
3.542,-0.710000,-0.591000,0.082000,20.672000,-2.359000,-27.260000,28.860000
3.548,-0.595000,-0.677000,0.128000,19.954000,-12.901000,-28.679000,28.860000
3.560,-0.389000,-0.626000,0.208000,17.672000,-7.779000,-17.313000,28.770000
3.573,-0.454000,-0.618000,0.258000,11.519000,6.160000,0.023000,28.910000
3.582,-0.657000,-0.635000,0.253000,2.809000,9.206000,2.954000,28.950000
3.592,-0.816000,-0.672000,0.220000,-2.870000,-1.847000,0.885000,28.860000
3.600,-0.905000,-0.692000,0.156000,-6.122000,-25.695000,-0.542000,28.810000
3.611,-0.875000,-0.743000,0.098000,-5.908000,-53.748000,-4.649000,28.910000
3.618,-0.859000,-0.727000,0.154000,-4.321000,-88.870000,0.397000,28.770000
3.632,-0.879000,-0.742000,0.214000,-2.969000,-125.802000,8.931000,28.770000
3.642,-0.685000,-0.700000,0.261000,-5.000000,-139.786000,15.794000,28.810000
3.650,-0.409000,-0.746000,0.226000,-4.656000,-108.031000,18.618000,28.810000
3.661,-0.299000,-0.723000,0.155000,-12.664000,-50.695000,16.298000,28.770000
3.668,-0.469000,-0.715000,0.053000,-19.679000,-0.427000,9.954000,28.770000
3.681,-0.723000,-0.709000,-0.084000,-21.985000,12.901000,4.420000,28.770000
3.692,-0.768000,-0.750000,-0.232000,-14.405000,-0.397000,-1.748000,28.910000
3.700,-0.739000,-0.738000,-0.282000,-2.115000,-24.076000,4.061000,28.910000
3.712,-0.737000,-0.719000,-0.223000,9.107000,-48.084000,15.198000,28.860000
3.718,-0.673000,-0.643000,-0.136000,13.969000,-59.015000,23.618000,28.770000
3.732,-0.531000,-0.619000,-0.073000,14.595000,-44.824000,29.137000,28.950000
3.742,-0.511000,-0.643000,-0.031000,16.901000,-23.534000,30.153000,28.910000
3.750,-0.562000,-0.653000,0.027000,18.214000,0.122000,28.344000,28.860000
3.762,-0.581000,-0.650000,0.074000,17.122000,14.992000,21.962000,28.770000
3.768,-0.610000,-0.654000,0.122000,13.557000,16.519000,22.137000,28.810000
3.782,-0.596000,-0.672000,0.173000,11.771000,5.061000,25.969000,28.910000
3.789,-0.557000,-0.671000,0.185000,9.573000,-9.191000,37.847000,28.860000
3.801,-0.545000,-0.695000,0.190000,9.611000,-17.137000,51.176000,28.770000
3.812,-0.563000,-0.653000,0.186000,10.626000,-13.954000,66.267000,28.810000
3.819,-0.631000,-0.659000,0.176000,13.496000,-6.969000,70.626000,28.810000
3.832,-0.663000,-0.642000,0.157000,15.260000,6.817000,67.908000,28.860000
3.839,-0.774000,-0.630000,0.151000,17.176000,21.290000,60.992000,28.860000
3.851,-0.872000,-0.637000,0.114000,17.061000,21.595000,49.725000,28.910000
3.863,-0.882000,-0.678000,0.075000,21.618000,14.481000,44.481000,28.810000
3.870,-0.855000,-0.615000,0.085000,22.855000,-1.580000,38.847000,28.860000
3.882,-0.759000,-0.533000,0.151000,19.397000,-17.511000,44.328000,28.770000
3.889,-0.669000,-0.495000,0.194000,12.550000,-10.519000,56.115000,28.860000
3.901,-0.730000,-0.490000,0.188000,5.794000,-1.137000,69.084000,28.720000
3.908,-0.791000,-0.503000,0.154000,3.397000,4.099000,72.260000,28.810000
3.921,-0.829000,-0.509000,0.160000,4.420000,5.260000,69.466000,28.950000
3.926,-0.874000,-0.511000,0.145000,3.137000,1.802000,60.137000,28.860000
3.940,-0.783000,-0.547000,0.125000,2.649000,-5.405000,47.282000,28.810000
3.954,-0.636000,-0.557000,0.116000,7.313000,-6.557000,46.412000,28.910000
3.959,-0.561000,-0.483000,0.151000,8.656000,-5.496000,59.443000,28.860000
3.972,-0.615000,-0.454000,0.170000,5.573000,-0.443000,80.053000,28.860000
3.979,-0.679000,-0.443000,0.181000,0.450000,4.748000,97.183000,28.810000
3.991,-0.829000,-0.412000,0.151000,-6.115000,10.466000,106.771000,28.810000
3.998,-0.984000,-0.436000,0.120000,-11.504000,6.794000,99.748000,28.860000
4.010,-0.998000,-0.493000,0.020000,-14.908000,-10.397000,80.626000,28.770000
4.022,-0.831000,-0.586000,-0.032000,-8.580000,-12.565000,56.954000,28.810000
4.031,-0.624000,-0.574000,-0.073000,8.748000,7.023000,49.504000,28.810000
4.042,-0.622000,-0.505000,-0.057000,30.168000,25.931000,63.061000,28.860000
4.049,-0.758000,-0.332000,0.069000,38.977000,23.725000,82.817000,28.860000
4.061,-0.933000,-0.199000,0.181000,33.687000,13.458000,101.221000,28.860000
4.072,-1.076000,-0.211000,0.229000,24.626000,-0.809000,103.183000,28.810000
4.079,-1.141000,-0.203000,0.218000,12.840000,-17.649000,93.336000,28.860000
4.092,-1.131000,-0.259000,0.201000,0.321000,-37.618000,78.214000,28.860000
4.100,-1.062000,-0.335000,0.155000,-7.885000,-53.611000,63.924000,28.770000
4.111,-0.915000,-0.392000,0.105000,-5.656000,-57.679000,57.122000,28.810000
4.123,-0.804000,-0.398000,0.097000,6.519000,-50.931000,59.450000,28.810000
4.132,-0.793000,-0.345000,0.130000,17.840000,-37.756000,67.435000,28.860000
4.142,-0.853000,-0.251000,0.212000,22.496000,-32.351000,78.168000,28.860000
4.150,-0.995000,-0.152000,0.303000,17.061000,-26.435000,80.710000,28.810000
4.161,-1.171000,-0.133000,0.334000,3.412000,-34.588000,73.038000,28.810000
4.173,-1.236000,-0.171000,0.339000,-10.840000,-59.611000,59.817000,28.770000
4.182,-1.129000,-0.208000,0.318000,-22.130000,-83.511000,50.252000,28.860000
4.193,-0.916000,-0.289000,0.248000,-25.527000,-89.916000,41.084000,28.770000
4.199,-0.661000,-0.340000,0.185000,-19.924000,-69.504000,43.038000,28.810000
4.211,-0.582000,-0.381000,0.158000,-6.473000,-36.000000,47.489000,28.810000
4.217,-0.646000,-0.328000,0.182000,5.786000,-5.053000,51.191000,28.860000
4.231,-0.789000,-0.244000,0.240000,10.718000,15.954000,54.718000,28.860000
4.242,-0.948000,-0.180000,0.291000,9.649000,14.664000,53.260000,28.860000
4.251,-1.049000,-0.119000,0.355000,1.954000,-6.649000,53.702000,28.910000
4.262,-1.043000,-0.103000,0.386000,-12.626000,-38.931000,51.679000,28.770000
4.268,-0.916000,-0.157000,0.350000,-22.458000,-64.374000,52.267000,28.860000
4.282,-0.697000,-0.191000,0.274000,-24.588000,-65.580000,62.649000,28.810000
4.292,-0.525000,-0.207000,0.199000,-16.916000,-36.366000,73.611000,28.810000
4.301,-0.600000,-0.220000,0.158000,-3.107000,1.687000,84.237000,28.860000
4.312,-0.777000,-0.143000,0.171000,9.519000,27.710000,85.366000,28.770000
4.318,-0.975000,-0.035000,0.255000,14.702000,41.351000,83.344000,28.860000
4.332,-1.202000,0.011000,0.315000,8.641000,31.931000,74.756000,28.810000
4.338,-1.298000,0.027000,0.358000,-3.076000,-1.214000,62.481000,28.810000
4.351,-1.177000,0.030000,0.385000,-17.511000,-35.901000,54.107000,28.860000
4.362,-0.953000,-0.029000,0.333000,-23.779000,-48.153000,54.412000,28.770000
4.369,-0.769000,-0.103000,0.246000,-21.443000,-40.710000,62.603000,28.810000
4.382,-0.682000,-0.083000,0.199000,-11.740000,-13.695000,73.641000,28.810000
4.388,-0.791000,-0.080000,0.181000,0.733000,16.969000,79.008000,28.810000
4.402,-0.920000,-0.052000,0.202000,9.275000,34.023000,74.595000,28.860000
4.413,-1.048000,0.005000,0.254000,11.885000,37.847000,67.855000,28.860000
4.420,-1.170000,0.030000,0.300000,6.168000,23.473000,56.695000,28.770000
4.433,-1.161000,0.003000,0.323000,-5.053000,-3.916000,44.725000,28.810000
4.440,-0.974000,-0.041000,0.294000,-12.580000,-27.458000,38.779000,28.770000
4.451,-0.684000,-0.050000,0.235000,-13.031000,-25.580000,45.656000,28.770000
4.458,-0.569000,-0.063000,0.165000,-5.802000,-4.244000,61.634000,28.810000
4.471,-0.622000,0.015000,0.140000,5.840000,23.840000,77.664000,28.910000
4.483,-0.797000,0.061000,0.137000,16.450000,44.634000,85.611000,28.860000
4.491,-0.987000,0.093000,0.177000,21.870000,50.206000,86.130000,28.770000
4.502,-1.176000,0.100000,0.209000,22.328000,37.290000,81.664000,28.860000
4.509,-1.298000,0.092000,0.264000,13.901000,4.908000,67.763000,28.810000
4.521,-1.168000,0.090000,0.254000,4.618000,-27.794000,54.435000,28.810000
4.529,-0.913000,0.068000,0.199000,6.847000,-40.069000,52.321000,28.860000
4.541,-0.668000,0.084000,0.157000,10.214000,-25.214000,59.168000,28.770000
4.553,-0.648000,0.125000,0.184000,16.679000,-0.702000,71.748000,28.720000
4.560,-0.827000,0.278000,0.274000,5.817000,5.779000,87.145000,28.810000
4.573,-0.937000,0.205000,0.266000,13.794000,0.198000,88.298000,28.860000
4.579,-1.010000,0.235000,0.303000,2.618000,-6.580000,90.595000,28.770000
4.593,-1.117000,0.214000,0.347000,-3.939000,-25.252000,82.069000,28.770000
4.601,-1.060000,0.173000,0.350000,-15.832000,-41.298000,69.695000,28.860000
4.611,-0.835000,0.145000,0.291000,-16.427000,-45.305000,63.985000,28.810000
4.618,-0.652000,0.169000,0.229000,-9.855000,-27.557000,69.618000,28.770000
4.632,-0.666000,0.188000,0.180000,2.069000,1.267000,79.763000,28.860000
4.643,-0.818000,0.211000,0.189000,13.809000,25.725000,83.954000,28.810000
4.651,-1.003000,0.254000,0.230000,18.550000,33.641000,78.557000,28.720000
4.662,-1.117000,0.281000,0.290000,15.275000,32.214000,64.275000,28.810000
4.668,-1.120000,0.274000,0.313000,8.550000,18.092000,47.931000,28.770000
4.682,-1.008000,0.282000,0.318000,0.519000,2.954000,37.985000,28.860000
4.689,-0.838000,0.325000,0.306000,-3.611000,-7.267000,39.435000,28.810000
4.701,-0.740000,0.352000,0.318000,-2.191000,-8.649000,51.389000,28.720000
4.713,-0.771000,0.343000,0.308000,-3.710000,-4.366000,63.771000,28.860000
4.719,-0.804000,0.326000,0.303000,-4.252000,-6.313000,74.725000,28.860000
4.732,-0.858000,0.316000,0.270000,-1.771000,-3.084000,77.481000,28.810000
4.740,-0.892000,0.295000,0.265000,-1.695000,3.985000,70.656000,28.810000
4.751,-0.904000,0.275000,0.259000,0.962000,7.771000,62.015000,28.810000
4.758,-0.886000,0.250000,0.244000,3.740000,6.282000,52.053000,28.860000
4.771,-0.752000,0.393000,0.255000,5.779000,4.908000,53.061000,28.770000
4.784,-0.732000,0.459000,0.281000,9.168000,13.336000,62.435000,28.720000
4.790,-0.803000,0.511000,0.300000,7.649000,17.863000,72.405000,28.720000
4.803,-0.941000,0.511000,0.306000,4.618000,14.664000,79.076000,28.770000
4.809,-1.024000,0.479000,0.319000,-0.015000,2.626000,76.214000,28.670000
4.821,-1.022000,0.439000,0.323000,-8.084000,-14.321000,69.458000,28.720000
4.829,-0.884000,0.421000,0.274000,-12.756000,-22.107000,61.954000,28.810000
4.842,-0.728000,0.400000,0.223000,-10.282000,-16.328000,64.153000,28.770000
4.853,-0.640000,0.378000,0.153000,-1.580000,4.145000,65.061000,28.860000
4.859,-0.618000,0.395000,0.117000,12.855000,29.603000,69.076000,28.860000
4.872,-0.694000,0.415000,0.126000,24.885000,51.595000,69.137000,28.720000
4.879,-0.789000,0.459000,0.178000,29.763000,57.466000,70.053000,28.720000
4.891,-0.884000,0.500000,0.239000,27.916000,47.069000,68.504000,28.770000
4.899,-0.959000,0.528000,0.323000,17.550000,19.153000,68.611000,28.770000
4.910,-0.924000,0.632000,0.383000,3.321000,-10.206000,72.061000,28.810000
4.922,-0.896000,0.752000,0.403000,-10.824000,-35.924000,81.649000,28.810000
4.929,-0.849000,0.744000,0.361000,-19.374000,-45.466000,89.901000,28.770000
4.943,-0.853000,0.738000,0.299000,-21.809000,-45.099000,88.244000,28.860000
4.948,-0.892000,0.672000,0.268000,-22.641000,-36.985000,84.779000,28.670000
4.960,-0.936000,0.610000,0.246000,-20.252000,-33.420000,74.450000,28.810000
4.972,-0.903000,0.567000,0.221000,-18.885000,-34.603000,62.115000,28.810000
4.978,-0.805000,0.534000,0.188000,-16.038000,-29.191000,52.870000,28.770000
4.992,-0.631000,0.499000,0.141000,-6.519000,-9.649000,45.802000,28.770000
4.998,-0.495000,0.539000,0.059000,9.809000,27.664000,48.000000,28.810000
5.010,-0.578000,0.560000,0.049000,28.748000,63.137000,52.115000,28.810000
5.022,-0.784000,0.595000,0.069000,44.321000,80.458000,50.695000,28.670000
5.029,-0.976000,0.652000,0.161000,47.145000,78.015000,45.092000,28.770000
5.043,-1.064000,0.651000,0.234000,39.565000,54.214000,34.229000,28.860000
5.049,-0.984000,0.640000,0.288000,27.947000,25.061000,30.725000,28.810000
5.061,-0.876000,0.641000,0.258000,17.817000,1.504000,22.550000,28.810000
5.068,-0.634000,0.668000,0.210000,13.321000,-1.611000,26.000000,28.670000
5.082,-0.528000,0.726000,0.170000,15.611000,8.313000,40.664000,28.770000
5.093,-0.630000,0.717000,0.145000,20.221000,13.061000,52.397000,28.810000
5.099,-0.772000,0.720000,0.165000,22.656000,9.344000,57.099000,28.720000
5.112,-0.852000,0.697000,0.205000,20.702000,-6.687000,54.863000,28.770000
5.118,-0.786000,0.716000,0.250000,16.061000,-23.840000,49.885000,28.770000
5.139,-0.661000,0.761000,0.293000,8.565000,-22.206000,51.206000,28.770000
5.143,-0.646000,0.739000,0.274000,2.015000,-17.260000,53.931000,28.770000
5.150,-0.663000,0.749000,0.253000,-0.221000,-12.031000,53.885000,28.810000
5.162,-0.727000,0.717000,0.243000,-3.473000,-13.496000,52.771000,28.770000
5.169,-0.733000,0.670000,0.228000,-5.008000,-20.992000,46.924000,28.770000
5.182,-0.704000,0.636000,0.246000,-7.145000,-32.748000,41.870000,28.810000
5.188,-0.593000,0.622000,0.202000,-9.527000,-37.748000,38.137000,28.720000
5.200,-0.363000,0.707000,0.185000,-3.954000,-26.206000,46.168000,28.720000
5.213,-0.323000,0.789000,0.163000,3.069000,-2.405000,63.847000,28.770000
5.219,-0.506000,0.780000,0.152000,9.939000,17.954000,73.992000,28.770000
5.232,-0.733000,0.795000,0.190000,15.099000,16.366000,74.550000,28.810000
5.240,-0.862000,0.804000,0.239000,15.603000,1.252000,65.389000,28.720000
5.252,-0.867000,0.775000,0.300000,9.450000,-21.176000,52.550000,28.770000
5.257,-0.778000,0.744000,0.314000,2.893000,-38.443000,40.450000,28.770000
5.270,-0.600000,0.764000,0.287000,-1.634000,-45.840000,34.763000,28.810000
5.284,-0.416000,0.779000,0.260000,0.290000,-38.374000,37.947000,28.810000
5.290,-0.299000,0.801000,0.198000,5.198000,-15.626000,45.046000,28.720000
5.302,-0.349000,0.828000,0.183000,9.542000,8.802000,53.969000,28.670000
5.308,-0.476000,0.818000,0.182000,16.061000,19.916000,59.122000,28.770000
5.321,-0.581000,0.826000,0.198000,18.519000,19.366000,58.420000,28.860000
5.334,-0.652000,0.804000,0.229000,18.000000,9.840000,55.740000,28.720000
5.340,-0.662000,0.785000,0.250000,15.634000,-2.252000,50.901000,28.860000
5.352,-0.601000,0.822000,0.268000,10.550000,-10.092000,48.618000,28.770000
5.359,-0.523000,0.823000,0.267000,6.046000,-14.725000,47.466000,28.810000
5.372,-0.399000,0.882000,0.232000,5.519000,-5.221000,51.122000,28.720000
5.378,-0.368000,0.946000,0.206000,6.397000,9.687000,61.412000,28.720000
5.391,-0.461000,0.948000,0.163000,9.779000,17.809000,67.809000,28.770000
5.403,-0.579000,0.953000,0.139000,15.611000,17.107000,71.504000,28.860000
5.410,-0.687000,0.935000,0.143000,20.176000,4.832000,70.870000,28.810000
5.422,-0.697000,0.895000,0.196000,22.458000,-6.550000,65.359000,28.720000
5.429,-0.714000,0.895000,0.230000,20.939000,-22.366000,60.977000,28.770000
5.442,-0.668000,0.855000,0.281000,14.985000,-32.771000,51.260000,28.860000
5.449,-0.608000,0.833000,0.276000,8.809000,-44.351000,42.504000,28.810000
5.460,-0.465000,0.852000,0.258000,1.634000,-46.855000,40.122000,28.620000
5.473,-0.304000,0.870000,0.234000,0.389000,-39.916000,41.260000,28.810000
5.482,-0.195000,0.896000,0.206000,3.618000,-24.634000,50.542000,28.670000
5.493,-0.229000,0.898000,0.192000,8.893000,-10.840000,60.969000,28.860000
5.499,-0.312000,0.902000,0.219000,12.947000,-1.519000,66.885000,28.810000
5.511,-0.427000,0.853000,0.232000,13.336000,-4.366000,66.122000,28.720000
5.518,-0.486000,0.853000,0.248000,11.298000,-7.412000,60.908000,28.770000
5.532,-0.492000,0.826000,0.261000,5.313000,-19.130000,54.008000,28.770000
5.542,-0.386000,0.831000,0.243000,1.855000,-21.489000,44.809000,28.720000
5.550,-0.219000,0.893000,0.225000,4.145000,-13.908000,45.237000,28.720000
5.562,-0.155000,0.950000,0.207000,7.695000,4.328000,51.672000,28.770000
5.569,-0.221000,0.990000,0.194000,12.603000,24.595000,59.603000,28.860000
5.581,-0.371000,1.008000,0.192000,16.511000,34.542000,62.359000,28.720000
5.588,-0.493000,1.004000,0.225000,17.931000,37.359000,58.893000,28.720000
5.601,-0.598000,0.978000,0.210000,14.969000,27.878000,50.985000,28.720000
5.613,-0.583000,0.935000,0.193000,11.702000,19.260000,38.718000,28.770000
5.619,-0.507000,0.902000,0.180000,7.802000,12.656000,29.076000,28.770000
5.632,-0.436000,0.873000,0.157000,8.481000,7.397000,22.374000,28.720000
5.639,-0.371000,0.853000,0.159000,11.260000,-2.000000,18.015000,28.720000
5.652,-0.300000,0.858000,0.168000,15.405000,-12.237000,20.298000,28.770000
5.663,-0.251000,0.900000,0.178000,17.649000,-21.893000,26.275000,28.770000
5.670,-0.208000,0.918000,0.188000,19.565000,-26.534000,33.527000,28.770000
5.682,-0.167000,0.969000,0.219000,19.015000,-23.305000,43.099000,28.720000
5.689,-0.176000,1.024000,0.230000,13.916000,-13.901000,52.779000,28.770000
5.702,-0.245000,1.023000,0.228000,7.542000,-8.275000,56.794000,28.860000
5.708,-0.287000,1.015000,0.191000,2.924000,-7.221000,56.595000,28.770000
5.720,-0.314000,0.976000,0.152000,-0.076000,-9.298000,52.595000,28.810000
5.734,-0.310000,0.930000,0.116000,-1.298000,-13.351000,47.252000,28.810000
5.740,-0.277000,0.916000,0.109000,1.252000,-19.092000,45.183000,28.770000
5.752,-0.201000,0.921000,0.105000,4.595000,-18.534000,42.969000,28.770000
5.758,-0.114000,0.978000,0.119000,8.145000,-8.687000,44.649000,28.720000
5.771,-0.098000,1.067000,0.134000,10.443000,6.137000,53.588000,28.810000
5.778,-0.202000,1.097000,0.162000,10.282000,15.214000,58.573000,28.770000
5.793,-0.339000,1.097000,0.169000,9.176000,14.496000,58.931000,28.770000
5.803,-0.456000,1.046000,0.163000,5.916000,5.107000,52.076000,28.720000
5.810,-0.456000,1.020000,0.135000,3.878000,-8.534000,39.443000,28.810000
5.822,-0.400000,0.985000,0.133000,3.122000,-20.069000,30.153000,28.720000
5.829,-0.281000,0.951000,0.127000,6.000000,-24.710000,21.511000,28.770000
5.842,-0.191000,0.948000,0.124000,8.076000,-21.916000,18.069000,28.670000
5.849,-0.102000,0.950000,0.134000,13.023000,-10.053000,15.878000,28.770000
5.860,-0.065000,0.934000,0.119000,15.351000,1.550000,15.252000,28.720000
5.873,-0.081000,0.933000,0.087000,18.420000,6.954000,17.359000,28.770000
5.879,-0.150000,0.899000,0.065000,25.069000,-1.916000,22.977000,28.860000
5.893,-0.168000,0.906000,0.036000,30.214000,-14.344000,26.641000,28.810000
5.899,-0.146000,0.955000,0.049000,37.427000,-28.817000,33.237000,28.810000
5.911,-0.103000,0.991000,0.090000,41.382000,-33.313000,42.885000,28.770000
5.923,-0.102000,1.046000,0.157000,41.336000,-29.687000,50.061000,28.670000
5.933,-0.186000,1.000000,0.188000,34.992000,-25.557000,45.763000,28.770000
5.942,-0.229000,1.019000,0.187000,28.588000,-24.130000,34.802000,28.720000
5.949,-0.206000,1.036000,0.182000,21.771000,-25.542000,26.282000,28.720000
5.961,-0.129000,1.046000,0.178000,16.924000,-23.427000,23.427000,28.770000
5.967,-0.071000,1.073000,0.188000,15.366000,-17.527000,25.626000,28.770000
5.982,-0.079000,1.109000,0.196000,10.802000,-7.153000,28.809000,28.810000
5.993,-0.155000,1.071000,0.198000,7.252000,-7.588000,28.328000,28.720000
6.000,-0.269000,0.926000,0.133000,0.618000,-16.573000,21.695000,28.770000
6.012,-0.261000,0.866000,0.044000,1.374000,-36.908000,9.481000,28.770000
6.019,-0.123000,0.882000,0.012000,6.122000,-55.954000,3.626000,28.860000
6.032,0.097000,0.941000,0.007000,16.878000,-59.527000,7.756000,28.810000
6.038,0.186000,1.044000,0.069000,24.176000,-44.931000,26.832000,28.770000
6.051,0.080000,1.161000,0.129000,27.794000,-29.145000,41.374000,28.770000
6.062,-0.068000,1.175000,0.194000,24.550000,-13.771000,49.458000,28.770000
6.069,-0.248000,1.131000,0.168000,16.794000,-4.771000,46.069000,28.910000
6.082,-0.384000,1.028000,0.122000,6.351000,-11.519000,28.267000,28.810000
6.089,-0.355000,1.015000,0.069000,2.534000,-23.458000,9.855000,28.670000
6.102,-0.218000,1.076000,0.042000,6.580000,-33.603000,1.206000,28.860000
6.113,-0.134000,1.174000,0.026000,10.198000,-34.298000,9.031000,28.810000
6.120,-0.181000,1.156000,-0.005000,11.931000,-22.771000,12.053000,28.810000
6.132,-0.262000,1.228000,0.075000,5.137000,-11.771000,21.878000,28.770000
6.139,-0.452000,1.094000,0.003000,2.962000,-14.565000,12.733000,28.860000
6.152,-0.501000,0.967000,-0.044000,3.344000,-27.115000,-6.588000,28.770000
6.158,-0.404000,0.850000,-0.057000,7.053000,-41.809000,-29.046000,28.720000
6.170,-0.160000,0.828000,-0.062000,16.565000,-51.008000,-46.267000,28.810000
6.182,0.088000,0.869000,-0.011000,27.038000,-45.725000,-44.855000,28.670000
6.189,0.171000,0.911000,0.059000,35.336000,-37.885000,-29.244000,28.770000
6.202,0.184000,0.939000,0.132000,39.359000,-27.550000,-19.397000,28.770000
6.208,0.122000,0.992000,0.213000,35.450000,-18.099000,-8.115000,28.720000
6.220,0.044000,1.032000,0.268000,28.756000,-15.557000,-2.374000,28.770000
6.234,0.013000,1.060000,0.299000,17.863000,-14.656000,-1.740000,28.860000
6.239,-0.028000,1.085000,0.284000,8.282000,-15.969000,-1.023000,28.860000
6.252,-0.060000,1.087000,0.259000,-1.908000,-16.336000,0.290000,28.720000
6.258,-0.087000,1.036000,0.197000,-9.565000,-17.710000,-1.573000,28.810000
6.270,-0.057000,1.015000,0.119000,-11.725000,-16.710000,-3.130000,28.770000
6.284,-0.030000,0.994000,0.083000,-10.664000,-12.573000,-5.939000,28.770000
6.290,0.007000,0.980000,0.051000,-8.412000,-6.656000,-8.939000,28.810000
6.302,0.025000,0.985000,0.041000,-3.985000,-0.611000,-10.023000,28.720000
6.309,0.014000,1.015000,0.043000,-0.603000,3.092000,-8.466000,28.770000
6.321,0.008000,1.031000,0.067000,0.733000,6.374000,-6.573000,28.770000
6.329,-0.015000,1.068000,0.084000,0.282000,9.534000,-3.527000,28.770000
6.342,-0.085000,1.093000,0.108000,-1.366000,11.962000,-1.511000,28.810000
6.353,-0.129000,1.066000,0.102000,-4.939000,11.405000,-3.969000,28.720000
6.360,-0.143000,1.073000,0.089000,-8.855000,11.366000,-7.847000,28.860000
6.372,-0.139000,1.087000,0.070000,-13.115000,7.802000,-10.542000,28.860000
6.379,-0.148000,0.969000,-0.010000,-18.359000,1.542000,-17.611000,28.670000
6.392,-0.072000,0.962000,-0.070000,-13.656000,-7.908000,-22.115000,28.720000
6.403,-0.005000,0.971000,-0.065000,-6.962000,-18.771000,-16.802000,28.770000
6.410,0.034000,0.991000,-0.030000,2.130000,-23.115000,-4.595000,28.770000
6.422,0.004000,1.055000,0.042000,6.863000,-20.023000,6.611000,28.770000
6.433,-0.086000,1.100000,0.120000,5.496000,-10.336000,9.885000,28.720000
6.443,-0.185000,1.099000,0.151000,1.328000,-0.885000,3.786000,28.720000
6.448,-0.252000,1.069000,0.153000,-3.321000,5.885000,-8.794000,28.770000
6.461,-0.265000,1.025000,0.118000,-6.542000,6.076000,-23.947000,28.770000
6.473,-0.224000,0.983000,0.063000,-7.237000,0.901000,-36.267000,28.720000
6.482,-0.128000,0.986000,0.049000,-4.740000,-7.084000,-40.023000,28.720000
6.493,-0.075000,0.955000,0.040000,-0.656000,-17.893000,-36.351000,28.810000
6.500,0.035000,1.000000,0.081000,1.954000,-16.244000,-29.107000,28.860000
6.511,0.080000,1.035000,0.131000,-0.214000,-6.069000,-19.878000,28.770000
6.518,0.055000,1.034000,0.151000,-5.122000,4.389000,-14.718000,28.810000
6.532,-0.011000,0.999000,0.132000,-9.305000,10.092000,-12.229000,28.720000
6.544,-0.054000,0.993000,0.108000,-11.802000,10.794000,-10.267000,28.770000
6.550,-0.085000,0.974000,0.076000,-12.069000,7.664000,-7.450000,28.770000
6.561,-0.108000,0.973000,0.064000,-11.573000,3.725000,-3.756000,28.770000
6.568,-0.137000,0.957000,0.072000,-10.099000,3.183000,-3.298000,28.810000
6.581,-0.147000,0.958000,0.080000,-9.069000,4.076000,-6.069000,28.860000
6.588,-0.142000,0.948000,0.076000,-9.298000,6.427000,-9.069000,28.770000
6.600,-0.116000,0.911000,0.086000,-8.809000,9.901000,-13.084000,28.860000
6.612,-0.048000,0.892000,0.077000,-9.344000,14.779000,-18.214000,28.810000
6.619,0.000000,0.882000,0.077000,-8.794000,18.908000,-16.885000,28.720000
6.632,0.012000,0.877000,0.073000,-9.099000,20.130000,-11.710000,28.770000
6.639,0.025000,0.892000,0.074000,-9.252000,19.687000,-3.244000,28.770000
6.651,-0.005000,0.921000,0.082000,-10.435000,17.725000,5.496000,28.720000
6.663,-0.050000,0.928000,0.077000,-11.954000,15.870000,13.641000,28.810000
6.670,-0.101000,0.941000,0.074000,-13.534000,15.084000,17.863000,28.670000
6.682,-0.159000,0.950000,0.084000,-14.412000,13.847000,19.305000,28.860000
6.689,-0.217000,0.953000,0.077000,-15.321000,12.282000,17.137000,28.770000
6.702,-0.248000,0.969000,0.073000,-15.504000,7.901000,14.382000,28.810000
6.707,-0.260000,0.976000,0.066000,-16.374000,4.107000,12.649000,28.810000
6.720,-0.245000,0.972000,0.071000,-17.504000,1.695000,8.824000,28.770000
6.734,-0.229000,0.955000,0.051000,-13.710000,-2.878000,2.992000,28.770000
6.740,-0.180000,0.960000,0.056000,-9.061000,-6.687000,-0.679000,28.770000
6.752,-0.131000,0.988000,0.074000,-6.870000,-7.519000,-3.038000,28.720000
6.758,-0.103000,1.000000,0.089000,-4.557000,-8.076000,-2.435000,28.770000
6.771,-0.088000,1.010000,0.090000,-2.496000,-7.847000,-0.305000,28.770000
6.783,-0.104000,1.021000,0.084000,-1.366000,-6.244000,1.267000,28.810000
6.791,-0.130000,0.998000,0.089000,0.275000,-7.527000,1.191000,28.810000
6.802,-0.126000,0.989000,0.084000,1.718000,-7.656000,-1.099000,28.770000
6.809,-0.121000,0.983000,0.086000,2.076000,-8.374000,-3.084000,28.860000
6.822,-0.100000,0.993000,0.097000,3.031000,-8.496000,-4.405000,28.770000
6.829,-0.073000,1.007000,0.108000,2.405000,-6.031000,-3.137000,28.810000
6.842,-0.037000,1.029000,0.111000,-0.374000,0.160000,2.427000,28.810000
6.848,-0.079000,1.018000,0.106000,-1.069000,1.160000,6.840000,28.860000
6.860,-0.123000,1.017000,0.108000,-1.550000,-1.634000,10.153000,28.770000
6.873,-0.138000,0.997000,0.117000,-1.069000,-4.695000,10.351000,28.720000
6.883,-0.124000,1.002000,0.119000,-0.840000,-3.740000,9.397000,28.810000
6.892,-0.120000,0.986000,0.120000,-0.588000,0.046000,7.481000,28.860000
6.900,-0.133000,0.979000,0.123000,-0.130000,2.374000,4.641000,28.860000
6.912,-0.130000,0.974000,0.117000,0.580000,3.527000,2.092000,28.770000
6.919,-0.129000,0.985000,0.124000,2.061000,2.489000,1.336000,28.720000
6.932,-0.134000,0.998000,0.123000,1.588000,0.473000,1.969000,28.720000
6.938,-0.138000,1.003000,0.129000,1.298000,-2.702000,3.359000,28.770000
6.951,-0.150000,1.006000,0.134000,0.809000,-6.634000,5.008000,28.770000
6.958,-0.150000,0.990000,0.128000,1.000000,-9.656000,5.588000,28.810000
6.971,-0.128000,0.984000,0.138000,1.282000,-12.214000,6.504000,28.810000
6.983,-0.107000,0.982000,0.146000,0.237000,-10.160000,5.954000,28.770000
6.990,-0.085000,0.980000,0.151000,-1.176000,-7.382000,6.023000,28.770000
7.002,-0.075000,0.990000,0.152000,-2.908000,-2.344000,6.168000,28.720000
7.009,-0.101000,1.005000,0.140000,-4.939000,1.870000,8.282000,28.810000
7.022,-0.110000,1.000000,0.136000,-4.344000,0.977000,5.687000,28.810000
7.029,-0.118000,0.998000,0.135000,-5.595000,-0.275000,7.435000,28.860000
7.042,-0.135000,0.977000,0.131000,-5.000000,-3.511000,8.305000,28.770000
7.048,-0.144000,0.972000,0.140000,-4.794000,-5.092000,6.649000,28.810000
7.060,-0.143000,0.958000,0.133000,-4.427000,-6.740000,4.802000,28.810000
7.072,-0.137000,0.958000,0.120000,-3.496000,-8.252000,2.740000,28.770000
7.082,-0.117000,0.966000,0.130000,-3.626000,-8.817000,2.038000,28.770000
7.093,-0.094000,0.981000,0.123000,-4.206000,-8.542000,3.473000,28.770000
7.099,-0.083000,0.976000,0.129000,-4.023000,-8.710000,5.611000,28.810000
7.111,-0.084000,0.982000,0.132000,-4.382000,-8.351000,7.832000,28.860000
7.118,-0.095000,0.982000,0.144000,-4.168000,-8.244000,9.473000,28.670000
7.131,-0.113000,0.971000,0.151000,-4.908000,-8.450000,9.740000,28.770000
7.143,-0.126000,0.983000,0.151000,-5.809000,-9.183000,8.771000,28.810000
7.150,-0.142000,0.986000,0.146000,-7.092000,-12.160000,7.542000,28.810000
7.162,-0.119000,0.982000,0.123000,-7.542000,-13.756000,5.779000,28.770000
7.169,-0.093000,0.995000,0.111000,-7.359000,-13.458000,6.588000,28.770000
7.182,-0.090000,0.991000,0.112000,-6.779000,-12.183000,7.618000,28.810000
7.188,-0.105000,0.992000,0.101000,-5.557000,-12.885000,8.145000,28.810000
7.202,-0.126000,0.983000,0.110000,-4.107000,-14.901000,8.565000,28.860000
7.213,-0.117000,0.984000,0.112000,-2.794000,-16.183000,7.420000,28.770000
7.219,-0.114000,0.984000,0.134000,-2.046000,-16.794000,7.023000,28.860000
7.232,-0.114000,0.980000,0.146000,-2.313000,-17.405000,6.260000,28.810000
7.240,-0.122000,0.975000,0.142000,-3.191000,-17.840000,5.977000,28.720000
7.252,-0.114000,0.981000,0.155000,-4.046000,-17.611000,5.985000,28.860000
7.258,-0.119000,0.971000,0.147000,-5.267000,-16.962000,6.282000,28.770000
7.270,-0.102000,0.979000,0.146000,-5.901000,-13.893000,5.626000,28.770000
7.284,-0.105000,0.977000,0.145000,-6.046000,-9.573000,5.740000,28.810000
7.290,-0.116000,0.964000,0.133000,-5.145000,-5.092000,4.176000,28.810000
7.302,-0.123000,0.987000,0.139000,-4.672000,-0.947000,2.267000,28.770000
7.309,-0.124000,0.990000,0.135000,-4.863000,1.397000,0.275000,28.770000
7.321,-0.119000,0.992000,0.143000,-4.947000,3.031000,-0.992000,28.810000
7.328,-0.122000,1.000000,0.122000,-5.099000,3.130000,-2.382000,28.810000
7.342,-0.116000,0.989000,0.111000,-5.092000,1.389000,-2.718000,28.860000
7.353,-0.122000,0.981000,0.108000,-4.679000,-0.893000,-3.183000,28.860000
7.359,-0.115000,0.961000,0.098000,-3.031000,-3.672000,-3.832000,28.720000
7.372,-0.116000,0.957000,0.096000,-1.344000,-6.458000,-4.374000,28.910000
7.379,-0.097000,0.958000,0.104000,0.649000,-9.397000,-5.420000,28.860000
7.393,-0.076000,0.958000,0.117000,2.076000,-11.168000,-5.740000,28.860000
7.398,-0.044000,0.968000,0.139000,2.504000,-9.573000,-4.679000,28.770000
7.410,-0.021000,0.973000,0.146000,1.679000,-5.130000,-2.863000,28.910000
7.423,-0.028000,0.976000,0.160000,1.130000,-2.115000,0.122000,28.910000
7.434,-0.069000,0.977000,0.161000,-0.053000,-1.733000,2.313000,28.860000
7.442,-0.094000,0.974000,0.157000,-1.168000,-2.519000,3.344000,28.860000
7.449,-0.105000,0.961000,0.157000,-1.855000,-5.237000,2.809000,28.860000
7.462,-0.118000,0.953000,0.144000,-2.069000,-8.771000,2.214000,28.810000
7.468,-0.109000,0.943000,0.151000,-2.023000,-12.580000,0.786000,28.860000
7.483,-0.090000,0.946000,0.156000,-1.603000,-15.870000,-0.221000,28.860000
7.493,-0.071000,0.947000,0.163000,-0.763000,-17.351000,-0.031000,28.770000
7.500,-0.037000,0.960000,0.178000,-1.420000,-15.710000,1.237000,28.810000
7.512,-0.032000,0.956000,0.185000,-2.214000,-11.130000,2.313000,28.720000
7.519,-0.026000,0.958000,0.180000,-2.618000,-5.389000,2.908000,28.860000
7.532,-0.044000,0.956000,0.167000,-3.588000,0.405000,3.282000,28.860000
7.539,-0.057000,0.953000,0.154000,-3.740000,4.550000,2.985000,28.810000
7.552,-0.073000,0.955000,0.145000,-3.824000,6.580000,3.153000,28.810000
7.558,-0.097000,0.961000,0.120000,-4.321000,6.863000,3.198000,28.860000
7.570,-0.110000,0.975000,0.114000,-4.718000,4.550000,2.664000,28.860000
7.584,-0.104000,0.957000,0.098000,-4.137000,1.718000,1.267000,28.720000
7.590,-0.096000,0.957000,0.080000,-2.405000,-0.496000,1.809000,28.910000
7.602,-0.079000,0.955000,0.091000,-0.321000,-0.977000,1.092000,28.910000
7.609,-0.065000,0.966000,0.091000,1.985000,0.626000,1.145000,28.860000
7.622,-0.069000,0.968000,0.108000,3.092000,3.344000,1.954000,28.770000
7.629,-0.078000,0.980000,0.118000,3.916000,6.206000,1.443000,28.770000
7.643,-0.101000,0.989000,0.118000,4.031000,7.954000,0.336000,28.810000
7.649,-0.100000,0.985000,0.116000,3.931000,7.183000,-0.305000,28.770000
7.661,-0.114000,0.975000,0.119000,4.145000,4.282000,0.031000,28.670000
7.668,-0.115000,0.979000,0.105000,4.626000,0.298000,0.397000,28.810000
7.682,-0.109000,0.980000,0.127000,5.122000,-4.115000,1.794000,28.720000
7.687,-0.115000,0.979000,0.132000,5.351000,-7.382000,2.267000,28.810000
7.701,-0.089000,0.995000,0.151000,5.496000,-7.641000,1.107000,28.770000
7.713,-0.091000,0.992000,0.161000,5.107000,-5.473000,0.672000,28.770000
7.720,-0.078000,0.998000,0.160000,4.748000,-1.870000,-1.336000,28.720000
7.732,-0.066000,0.995000,0.158000,4.275000,2.397000,-1.634000,28.720000
7.740,-0.067000,0.993000,0.155000,4.595000,3.771000,-0.840000,28.770000
7.752,-0.076000,0.998000,0.167000,4.931000,2.313000,0.557000,28.860000
7.759,-0.082000,1.003000,0.173000,4.122000,-0.489000,2.168000,28.720000
7.771,-0.090000,1.000000,0.181000,3.076000,-3.779000,3.466000,28.720000
7.779,-0.097000,0.997000,0.186000,1.336000,-6.908000,3.794000,28.810000
7.791,-0.110000,0.993000,0.179000,0.031000,-10.221000,3.153000,28.860000
7.803,-0.106000,0.969000,0.163000,-0.275000,-11.405000,0.779000,28.770000
7.810,-0.070000,0.978000,0.164000,-0.214000,-9.908000,-1.130000,28.860000
7.822,-0.042000,0.952000,0.147000,0.298000,-6.664000,-1.794000,28.810000
7.829,-0.029000,0.965000,0.140000,1.626000,-3.374000,-1.786000,28.860000
7.842,-0.031000,0.965000,0.145000,2.519000,-0.542000,-0.267000,28.770000
7.849,-0.052000,0.979000,0.149000,2.603000,-0.084000,2.656000,28.810000
7.861,-0.061000,0.987000,0.154000,1.229000,-0.145000,4.725000,28.810000
7.868,-0.086000,0.992000,0.143000,-0.389000,-2.000000,5.176000,28.910000
7.889,-0.083000,0.991000,0.140000,-0.878000,-3.718000,5.198000,28.860000
