time_sec,ax,ay,az,gx,gy,gz,temp_c
0.015,-0.093000,0.961000,0.174000,9.962000,11.435000,1.221000,30.080000
0.019,-0.085000,0.963000,0.178000,9.069000,11.977000,0.176000,29.940000
0.026,-0.081000,0.966000,0.173000,8.031000,12.962000,0.550000,29.940000
0.038,-0.083000,0.959000,0.161000,7.244000,13.397000,1.550000,29.890000
0.045,-0.078000,0.962000,0.156000,7.328000,15.015000,1.450000,30.040000
0.058,-0.085000,0.971000,0.148000,7.809000,15.473000,1.595000,29.940000
0.065,-0.098000,1.002000,0.157000,8.527000,14.794000,1.229000,29.990000
0.080,-0.108000,0.996000,0.151000,8.344000,12.099000,1.275000,29.890000
0.086,-0.102000,1.011000,0.161000,8.076000,10.344000,0.435000,29.940000
0.098,-0.097000,1.006000,0.175000,6.450000,9.008000,0.550000,29.940000
0.111,-0.104000,1.008000,0.160000,5.130000,7.687000,1.260000,29.800000
0.118,-0.094000,0.991000,0.154000,5.420000,6.374000,2.031000,29.990000
0.130,-0.070000,0.993000,0.157000,4.901000,6.954000,2.191000,30.040000
0.137,-0.045000,0.996000,0.154000,4.481000,7.267000,2.466000,30.040000
0.150,-0.049000,0.969000,0.151000,4.939000,7.565000,2.832000,29.990000
0.157,-0.055000,0.975000,0.135000,5.168000,5.916000,3.924000,29.990000
0.170,-0.061000,0.970000,0.141000,4.672000,2.031000,5.344000,30.040000
0.178,-0.057000,0.969000,0.147000,5.420000,-2.740000,6.885000,29.990000
0.190,-0.037000,0.971000,0.158000,5.878000,-5.962000,9.076000,29.990000
0.197,-0.013000,0.973000,0.166000,4.000000,-5.962000,9.099000,30.040000
0.209,0.015000,0.970000,0.173000,3.450000,-3.504000,8.191000,29.850000
0.216,0.015000,0.972000,0.177000,3.229000,-0.534000,8.420000,30.080000
0.229,-0.003000,0.981000,0.169000,3.145000,1.740000,8.618000,29.890000
0.237,-0.018000,0.991000,0.174000,2.954000,1.863000,10.076000,30.040000
0.248,-0.035000,0.989000,0.156000,2.366000,-0.015000,12.763000,29.940000
0.256,-0.041000,0.990000,0.156000,2.511000,-1.992000,13.779000,29.990000
0.268,-0.032000,1.000000,0.161000,2.534000,-2.183000,15.336000,29.990000
0.277,-0.042000,1.009000,0.154000,1.786000,-1.687000,17.015000,29.940000
0.288,-0.037000,1.017000,0.160000,2.321000,2.084000,16.664000,29.850000
0.300,-0.054000,1.021000,0.156000,1.679000,6.252000,16.427000,29.890000
0.307,-0.107000,1.007000,0.098000,5.664000,3.206000,19.763000,29.890000
0.320,-0.121000,1.041000,0.116000,2.626000,7.084000,13.000000,29.940000
0.329,-0.148000,1.026000,0.094000,1.252000,3.672000,13.046000,29.990000
0.340,-0.155000,1.015000,0.099000,1.992000,-1.153000,10.954000,29.990000
0.347,-0.124000,1.011000,0.113000,3.137000,-3.015000,7.954000,29.940000
0.359,-0.091000,1.010000,0.127000,4.000000,-1.969000,4.611000,29.940000
0.366,-0.092000,1.015000,0.135000,4.649000,-1.962000,4.450000,29.990000
0.379,-0.078000,1.024000,0.145000,4.107000,0.679000,2.580000,29.990000
0.387,-0.071000,1.021000,0.139000,2.321000,3.466000,2.977000,29.940000
0.399,-0.082000,1.041000,0.118000,1.053000,5.740000,4.435000,29.940000
0.406,-0.107000,1.053000,0.106000,0.328000,7.443000,5.496000,29.990000
0.418,-0.142000,1.065000,0.062000,1.359000,6.511000,5.908000,29.990000
0.426,-0.173000,1.070000,0.060000,2.305000,5.985000,2.573000,29.940000
0.439,-0.184000,1.050000,0.071000,4.511000,6.809000,-3.198000,29.990000
0.445,-0.179000,1.048000,0.083000,6.702000,8.847000,-9.977000,29.990000
0.458,-0.167000,1.050000,0.100000,8.374000,10.809000,-15.412000,29.990000
0.470,-0.169000,1.061000,0.108000,9.313000,12.221000,-18.519000,30.040000
0.479,-0.151000,1.071000,0.123000,10.038000,13.885000,-20.252000,29.990000
0.489,-0.171000,1.094000,0.126000,9.519000,15.847000,-20.695000,29.990000
0.496,-0.188000,1.083000,0.127000,10.672000,16.557000,-20.611000,29.940000
0.508,-0.211000,1.092000,0.138000,13.931000,18.298000,-20.809000,29.940000
0.515,-0.236000,1.092000,0.134000,14.489000,22.053000,-26.603000,29.990000
0.528,-0.236000,1.078000,0.162000,14.855000,27.000000,-34.962000,29.850000
0.540,-0.246000,1.054000,0.172000,12.733000,28.901000,-43.992000,29.940000
0.547,-0.262000,1.023000,0.155000,9.977000,26.870000,-51.664000,29.990000
0.559,-0.242000,1.005000,0.130000,7.366000,23.076000,-56.374000,29.990000
0.566,-0.206000,0.993000,0.111000,5.000000,18.427000,-58.130000,29.940000
0.579,-0.161000,0.948000,0.099000,7.832000,13.099000,-58.435000,29.940000
0.586,-0.121000,0.944000,0.116000,8.061000,13.748000,-55.427000,29.890000
0.598,-0.095000,0.955000,0.122000,10.824000,15.321000,-51.504000,29.890000
0.610,-0.104000,0.967000,0.151000,12.634000,21.168000,-47.313000,29.940000
0.617,-0.113000,0.999000,0.169000,14.252000,26.855000,-43.458000,29.940000
0.629,-0.146000,1.021000,0.149000,12.282000,33.260000,-41.466000,29.890000
0.636,-0.185000,1.040000,0.128000,9.534000,37.153000,-41.511000,29.940000
0.648,-0.224000,1.034000,0.110000,5.878000,36.969000,-44.412000,29.850000
0.655,-0.252000,1.031000,0.084000,6.542000,35.237000,-46.649000,29.990000
0.667,-0.254000,1.014000,0.062000,10.527000,32.672000,-48.878000,29.890000
0.680,-0.199000,1.068000,0.065000,19.290000,36.221000,-43.878000,30.040000
0.688,-0.260000,1.186000,0.065000,24.122000,42.656000,-32.634000,29.940000
0.699,-0.337000,1.221000,0.114000,22.939000,51.481000,-32.435000,29.890000
0.706,-0.405000,1.155000,0.072000,24.878000,49.870000,-35.924000,29.890000
0.718,-0.497000,1.125000,0.021000,26.885000,43.122000,-49.809000,29.940000
0.727,-0.517000,1.046000,0.004000,24.702000,29.344000,-62.519000,30.040000
0.738,-0.475000,1.022000,-0.027000,20.962000,23.313000,-73.344000,29.990000
0.749,-0.473000,1.007000,-0.033000,24.145000,11.916000,-78.794000,29.990000
0.757,-0.369000,0.986000,-0.030000,32.046000,6.031000,-79.191000,29.940000
0.769,-0.349000,1.015000,0.005000,33.221000,7.420000,-74.992000,29.990000
0.776,-0.352000,0.974000,0.022000,31.870000,9.656000,-77.168000,29.890000
0.789,-0.354000,0.978000,0.037000,32.947000,10.840000,-79.176000,30.040000
0.796,-0.374000,0.989000,0.052000,30.924000,9.954000,-80.840000,30.040000
0.807,-0.372000,0.952000,0.063000,29.603000,6.939000,-83.489000,29.890000
0.820,-0.343000,0.974000,0.062000,29.534000,5.931000,-79.870000,29.990000
0.828,-0.343000,0.986000,0.062000,26.771000,5.351000,-71.969000,29.940000
0.839,-0.347000,0.970000,0.051000,25.695000,7.137000,-65.924000,29.940000
0.846,-0.375000,0.978000,0.042000,23.504000,7.725000,-62.687000,29.990000
0.858,-0.412000,0.936000,0.028000,22.229000,4.389000,-66.275000,29.990000
0.865,-0.399000,0.906000,0.007000,19.214000,4.053000,-69.565000,29.940000
0.878,-0.404000,0.907000,-0.006000,14.687000,2.237000,-70.122000,29.890000
0.890,-0.381000,0.889000,-0.021000,12.634000,0.534000,-69.183000,29.990000
0.897,-0.374000,0.937000,-0.033000,13.992000,0.847000,-61.832000,29.990000
0.909,-0.390000,0.923000,-0.024000,15.176000,-0.107000,-52.992000,29.940000
0.916,-0.403000,0.920000,-0.039000,15.427000,2.214000,-47.878000,29.990000
0.928,-0.456000,0.937000,-0.034000,13.214000,5.725000,-44.847000,29.890000
0.937,-0.471000,0.924000,-0.051000,13.725000,5.840000,-42.504000,29.940000
0.947,-0.479000,0.983000,-0.047000,12.336000,7.878000,-39.947000,29.940000
0.959,-0.536000,0.938000,-0.050000,8.344000,5.267000,-41.977000,29.800000
0.966,-0.536000,0.890000,-0.032000,6.634000,3.611000,-50.863000,29.990000
0.979,-0.514000,0.884000,-0.050000,4.641000,3.824000,-56.603000,29.940000
0.988,-0.495000,0.872000,-0.057000,5.061000,4.221000,-58.305000,29.990000
0.998,-0.451000,0.901000,-0.070000,10.389000,10.107000,-54.107000,29.990000
1.004,-0.485000,0.958000,-0.085000,12.756000,12.672000,-43.099000,29.940000
1.017,-0.550000,0.917000,-0.076000,11.176000,11.267000,-38.802000,29.940000
1.029,-0.619000,0.865000,-0.074000,12.115000,5.710000,-41.870000,29.990000
1.037,-0.678000,0.797000,-0.065000,8.206000,-3.260000,-50.893000,29.990000
1.048,-0.623000,0.766000,-0.054000,10.321000,-9.634000,-60.702000,29.890000
1.055,-0.541000,0.819000,-0.072000,12.313000,-6.084000,-66.702000,30.040000
1.067,-0.492000,0.847000,-0.081000,16.198000,-0.649000,-62.573000,29.990000
1.080,-0.479000,0.870000,-0.102000,22.015000,9.824000,-54.649000,29.890000
1.088,-0.557000,0.909000,-0.095000,23.046000,14.748000,-44.878000,29.940000
1.099,-0.678000,0.847000,-0.067000,18.626000,12.832000,-44.527000,29.990000
1.105,-0.739000,0.784000,-0.066000,18.290000,5.206000,-53.702000,29.990000
1.118,-0.730000,0.807000,-0.039000,10.366000,-2.885000,-61.496000,29.940000
1.130,-0.674000,0.749000,-0.055000,4.786000,-7.206000,-71.198000,29.940000
1.137,-0.594000,0.790000,-0.079000,3.084000,-4.580000,-71.763000,29.890000
1.149,-0.589000,0.775000,-0.094000,2.832000,-6.603000,-63.977000,29.890000
1.156,-0.611000,0.710000,-0.106000,4.092000,-4.534000,-60.672000,29.940000
1.168,-0.635000,0.763000,-0.118000,5.534000,-2.573000,-54.931000,30.040000
1.176,-0.679000,0.773000,-0.106000,6.031000,-6.748000,-47.840000,29.990000
1.188,-0.674000,0.749000,-0.113000,8.198000,-7.366000,-50.282000,29.890000
1.200,-0.714000,0.762000,-0.088000,4.756000,-7.931000,-48.550000,29.940000
1.207,-0.747000,0.708000,-0.081000,3.031000,-14.435000,-49.893000,29.890000
1.219,-0.716000,0.680000,-0.085000,1.443000,-13.565000,-57.626000,29.990000
1.228,-0.691000,0.694000,-0.085000,1.321000,-11.374000,-60.947000,29.940000
1.238,-0.658000,0.695000,-0.103000,5.336000,-7.221000,-60.817000,30.040000
1.250,-0.676000,0.727000,-0.109000,8.847000,-2.412000,-58.626000,29.990000
1.257,-0.721000,0.754000,-0.108000,10.924000,-3.000000,-52.710000,29.990000
1.269,-0.779000,0.752000,-0.080000,9.351000,-5.534000,-51.382000,30.040000
1.278,-0.810000,0.776000,-0.070000,4.595000,-10.328000,-48.992000,29.940000
1.288,-0.852000,0.729000,-0.079000,-1.298000,-19.679000,-50.786000,29.990000
1.300,-0.821000,0.694000,-0.085000,-6.802000,-22.519000,-56.374000,29.940000
1.307,-0.778000,0.690000,-0.112000,-5.252000,-24.206000,-58.458000,30.040000
1.319,-0.785000,0.620000,-0.117000,-2.878000,-25.466000,-62.740000,30.080000
1.326,-0.807000,0.562000,-0.126000,1.786000,-24.802000,-68.137000,29.990000
1.338,-0.767000,0.637000,-0.094000,8.153000,-26.954000,-65.534000,29.990000
1.350,-0.786000,0.621000,-0.064000,8.626000,-27.878000,-66.313000,29.940000
1.357,-0.724000,0.680000,-0.054000,10.687000,-23.794000,-66.053000,29.890000
1.369,-0.744000,0.732000,-0.037000,6.908000,-24.534000,-59.321000,29.990000
1.376,-0.783000,0.643000,-0.038000,1.649000,-23.160000,-61.641000,29.940000
1.388,-0.777000,0.675000,-0.055000,-0.260000,-19.641000,-61.672000,29.990000
1.400,-0.817000,0.611000,-0.036000,-3.107000,-23.084000,-58.053000,29.890000
1.407,-0.837000,0.555000,-0.057000,-2.611000,-21.435000,-62.443000,29.940000
1.419,-0.787000,0.609000,-0.041000,-0.275000,-20.191000,-56.817000,29.940000
1.426,-0.802000,0.561000,-0.054000,1.328000,-17.466000,-56.634000,29.990000
1.438,-0.824000,0.560000,-0.054000,3.221000,-12.908000,-58.840000,30.080000
1.450,-0.834000,0.593000,-0.033000,5.664000,-11.656000,-57.473000,30.040000
1.457,-0.850000,0.579000,-0.036000,7.931000,-8.649000,-60.176000,29.940000
1.469,-0.866000,0.599000,-0.049000,8.748000,-6.137000,-60.550000,29.990000
1.477,-0.914000,0.600000,-0.004000,9.198000,-10.206000,-58.748000,29.990000
1.489,-0.923000,0.572000,-0.008000,7.893000,-11.130000,-63.038000,29.940000
1.496,-0.935000,0.597000,-0.002000,5.542000,-13.702000,-62.328000,29.990000
1.507,-0.922000,0.534000,-0.008000,3.779000,-14.458000,-65.733000,29.990000
1.519,-0.912000,0.517000,-0.015000,3.985000,-10.672000,-72.718000,30.040000
1.527,-0.940000,0.493000,0.004000,0.641000,-14.031000,-76.466000,30.040000
1.539,-0.936000,0.415000,0.001000,-1.641000,-15.969000,-85.786000,29.890000
1.546,-0.859000,0.413000,-0.015000,-0.458000,-17.489000,-90.649000,29.990000
1.557,-0.797000,0.396000,-0.022000,3.771000,-16.832000,-87.412000,29.940000
1.570,-0.747000,0.389000,-0.045000,11.405000,-11.275000,-78.588000,30.040000
1.577,-0.758000,0.442000,-0.034000,17.947000,-5.069000,-67.824000,29.990000
1.589,-0.848000,0.420000,-0.007000,18.008000,-1.511000,-62.893000,29.990000
1.596,-0.896000,0.371000,0.006000,15.924000,-2.275000,-67.519000,30.040000
1.608,-0.939000,0.373000,0.014000,6.298000,-5.687000,-69.435000,30.040000
1.620,-0.931000,0.237000,-0.006000,1.603000,-14.244000,-75.053000,29.990000
1.628,-0.828000,0.286000,-0.026000,2.916000,-16.634000,-73.076000,29.990000
1.639,-0.748000,0.234000,-0.081000,7.939000,-15.191000,-66.336000,30.040000
1.646,-0.683000,0.316000,-0.077000,21.084000,-1.885000,-51.107000,30.080000
1.658,-0.742000,0.288000,-0.079000,28.382000,11.580000,-44.145000,29.890000
1.670,-0.791000,0.260000,-0.039000,37.550000,27.870000,-43.634000,29.940000
1.677,-0.913000,0.244000,0.006000,40.748000,33.603000,-45.847000,30.040000
1.690,-0.994000,0.185000,0.021000,38.176000,33.305000,-54.046000,29.890000
1.697,-1.040000,0.208000,0.019000,32.870000,22.084000,-57.198000,29.990000
1.708,-1.016000,0.231000,-0.030000,27.985000,11.634000,-61.641000,29.940000
1.715,-0.942000,0.296000,-0.019000,29.336000,4.740000,-59.672000,29.940000
1.728,-0.925000,0.283000,-0.050000,28.206000,0.573000,-53.809000,30.080000
1.740,-0.924000,0.307000,-0.062000,29.863000,-0.160000,-45.565000,29.890000
1.747,-1.000000,0.270000,-0.026000,28.137000,-6.573000,-42.061000,29.940000
1.759,-1.028000,0.208000,-0.018000,26.275000,-13.359000,-46.557000,30.040000
1.765,-1.008000,0.224000,0.008000,26.084000,-17.076000,-51.672000,30.080000
1.778,-0.953000,0.173000,0.010000,24.588000,-22.534000,-55.137000,29.890000
1.790,-0.869000,0.261000,-0.010000,22.137000,-17.275000,-54.069000,30.040000
1.798,-0.873000,0.276000,0.002000,18.069000,-16.908000,-44.397000,30.080000
1.809,-0.915000,0.230000,-0.043000,12.519000,-14.351000,-39.221000,29.990000
1.815,-0.977000,0.209000,-0.047000,7.969000,-15.817000,-38.267000,29.940000
1.829,-1.001000,0.082000,-0.047000,9.229000,-17.328000,-44.924000,30.040000
1.840,-0.929000,0.085000,-0.042000,15.344000,-11.580000,-53.038000,29.990000
1.847,-0.900000,0.138000,0.001000,22.374000,-7.252000,-55.038000,29.990000
1.859,-0.887000,0.096000,-0.013000,27.710000,-1.573000,-54.252000,29.940000
1.866,-0.886000,0.210000,0.030000,28.977000,4.756000,-47.893000,29.940000
1.878,-0.942000,0.225000,0.025000,23.489000,4.229000,-43.160000,29.990000
1.885,-0.981000,0.202000,0.013000,16.366000,5.084000,-41.603000,29.940000
1.898,-1.033000,0.191000,0.012000,7.298000,-1.992000,-44.802000,30.040000
1.910,-1.078000,0.094000,0.004000,2.969000,-13.389000,-49.282000,29.890000
1.917,-1.030000,0.041000,0.001000,1.061000,-20.794000,-54.275000,29.990000
1.929,-0.967000,0.040000,0.031000,3.366000,-27.443000,-53.687000,29.990000
1.937,-0.888000,0.003000,0.022000,4.481000,-23.282000,-58.809000,29.940000
1.948,-0.841000,0.031000,0.035000,7.412000,-15.794000,-58.649000,30.080000
1.954,-0.832000,0.022000,0.034000,10.481000,-8.924000,-55.450000,30.080000
1.967,-0.851000,0.029000,0.041000,10.389000,-2.374000,-52.092000,30.040000
1.980,-0.887000,0.082000,0.031000,7.962000,0.122000,-44.031000,30.040000
1.987,-0.963000,0.048000,0.032000,2.687000,-6.351000,-36.359000,29.990000
1.999,-0.977000,-0.017000,0.010000,-0.748000,-9.908000,-37.443000,29.990000
2.005,-0.980000,-0.069000,-0.003000,-2.198000,-17.092000,-35.695000,29.940000
2.017,-0.930000,-0.133000,-0.007000,5.954000,-17.771000,-37.794000,29.890000
2.030,-0.886000,-0.118000,0.018000,14.847000,-12.969000,-40.130000,29.990000
2.037,-0.863000,-0.083000,0.040000,22.832000,-2.901000,-40.702000,30.040000
2.049,-0.911000,-0.026000,0.052000,23.763000,4.435000,-38.115000,29.940000
2.056,-0.975000,0.028000,0.082000,22.427000,7.863000,-34.359000,29.990000
2.068,-1.036000,0.017000,0.082000,15.053000,3.855000,-34.336000,29.990000
2.077,-1.062000,-0.013000,0.080000,4.092000,0.992000,-40.183000,29.990000
2.088,-1.040000,-0.081000,0.045000,-4.756000,-6.183000,-44.634000,29.940000
2.099,-0.981000,-0.119000,0.029000,-4.611000,-16.000000,-44.695000,30.080000
2.106,-0.925000,-0.155000,0.006000,-3.038000,-23.382000,-42.931000,30.040000
2.118,-0.846000,-0.201000,0.005000,3.580000,-22.321000,-38.565000,30.040000
2.128,-0.790000,-0.141000,0.012000,9.260000,-11.092000,-34.908000,29.990000
2.138,-0.788000,-0.138000,-0.018000,10.092000,2.305000,-30.183000,30.080000
2.149,-0.846000,-0.022000,-0.074000,6.038000,11.565000,-20.313000,29.940000
2.156,-0.945000,-0.095000,-0.133000,4.260000,10.756000,-8.939000,30.040000
2.169,-0.979000,-0.081000,-0.205000,4.954000,5.779000,-3.656000,29.990000
2.176,-1.035000,-0.149000,-0.205000,7.115000,-2.290000,4.542000,29.890000
2.188,-1.116000,-0.193000,-0.188000,9.977000,-9.870000,0.771000,29.940000
2.200,-1.161000,-0.201000,-0.127000,15.588000,-18.313000,-9.321000,30.040000
2.207,-1.117000,-0.191000,-0.052000,22.611000,-22.863000,-25.519000,29.990000
2.219,-1.036000,-0.149000,0.017000,26.878000,-20.221000,-41.412000,29.990000
2.226,-0.949000,-0.135000,0.075000,26.473000,-14.435000,-49.710000,29.940000
2.238,-0.907000,-0.094000,0.114000,22.679000,-11.695000,-50.000000,29.850000
2.250,-0.891000,-0.088000,0.134000,18.527000,-10.206000,-44.611000,30.080000
2.256,-0.888000,-0.127000,0.156000,14.664000,-12.588000,-35.023000,30.040000
2.269,-0.912000,-0.114000,0.192000,8.557000,-14.588000,-29.496000,30.040000
2.276,-0.905000,-0.131000,0.207000,4.634000,-19.412000,-23.771000,29.990000
2.288,-0.889000,-0.085000,0.210000,-1.336000,-22.573000,-16.374000,29.990000
2.300,-0.879000,-0.097000,0.179000,-11.229000,-22.351000,-14.626000,30.130000
2.306,-0.850000,-0.110000,0.163000,-16.511000,-19.901000,-9.313000,30.040000
2.318,-0.882000,-0.141000,0.140000,-22.092000,-20.260000,-4.985000,29.990000
2.326,-0.911000,-0.265000,0.142000,-18.580000,-24.115000,-6.672000,29.990000
2.338,-0.911000,-0.246000,0.167000,-14.145000,-24.908000,-10.878000,29.940000
2.349,-0.878000,-0.260000,0.212000,-9.511000,-24.282000,-14.397000,30.040000
2.356,-0.805000,-0.154000,0.232000,-10.397000,-13.336000,-12.748000,29.990000
2.368,-0.815000,-0.067000,0.198000,-21.076000,-6.221000,-2.534000,29.990000
2.376,-0.863000,-0.073000,0.149000,-25.412000,3.557000,7.015000,29.940000
2.388,-0.991000,-0.091000,0.096000,-35.504000,3.229000,17.641000,29.990000
2.400,-1.144000,-0.205000,0.077000,-37.511000,-7.947000,20.344000,30.080000
2.406,-1.195000,-0.187000,0.060000,-37.534000,-22.878000,13.244000,30.040000
2.418,-1.170000,-0.219000,0.083000,-35.389000,-36.893000,1.977000,30.040000
2.427,-1.087000,-0.229000,0.121000,-33.710000,-44.779000,-11.679000,29.990000
2.438,-0.927000,-0.251000,0.088000,-28.511000,-38.725000,-21.313000,29.990000
2.449,-0.831000,-0.237000,0.081000,-23.122000,-23.679000,-23.107000,30.040000
2.456,-0.781000,-0.276000,0.040000,-15.527000,-9.237000,-19.130000,29.940000
2.468,-0.799000,-0.339000,0.016000,-5.122000,0.557000,-12.954000,29.990000
2.477,-0.837000,-0.353000,0.020000,6.618000,5.580000,-12.802000,30.080000
2.487,-0.884000,-0.289000,0.042000,10.412000,0.969000,-11.076000,29.940000
2.500,-0.884000,-0.288000,0.055000,11.336000,-2.389000,-9.809000,30.040000
2.506,-0.824000,-0.205000,0.085000,11.359000,-0.664000,-3.511000,29.990000
2.519,-0.805000,-0.236000,0.081000,8.878000,1.145000,4.076000,29.990000
2.527,-0.814000,-0.238000,0.073000,8.878000,7.130000,10.702000,29.940000
2.538,-0.905000,-0.283000,0.080000,13.145000,9.328000,11.748000,29.990000
2.546,-0.955000,-0.244000,0.126000,16.183000,7.267000,11.321000,29.990000
2.558,-0.933000,-0.151000,0.197000,18.359000,5.466000,4.458000,30.040000
2.570,-0.959000,-0.083000,0.187000,13.168000,4.870000,-1.557000,30.040000
2.579,-0.852000,0.064000,0.162000,1.985000,6.908000,2.840000,29.990000
2.591,-0.928000,-0.115000,0.183000,0.557000,-0.336000,9.267000,29.990000
2.597,-0.952000,-0.179000,0.151000,0.252000,-2.733000,16.366000,30.040000
2.609,-0.988000,-0.234000,0.171000,0.702000,-17.153000,20.504000,29.940000
2.616,-1.000000,-0.324000,0.135000,8.672000,-34.580000,21.840000,30.080000
2.628,-0.935000,-0.336000,0.135000,22.053000,-43.298000,23.634000,30.040000
2.634,-0.813000,-0.294000,0.191000,30.412000,-37.718000,22.153000,30.130000
2.648,-0.680000,-0.229000,0.214000,30.893000,-17.977000,27.206000,29.990000
2.659,-0.661000,-0.111000,0.223000,27.298000,4.023000,36.634000,29.990000
2.666,-0.766000,-0.072000,0.177000,15.664000,25.061000,44.412000,29.990000
2.679,-0.937000,0.012000,0.148000,1.542000,33.122000,51.947000,30.040000
2.687,-1.139000,-0.005000,0.093000,-12.214000,24.046000,55.832000,29.990000
2.698,-1.210000,-0.122000,0.047000,-20.069000,5.595000,47.794000,30.080000
2.710,-1.177000,-0.181000,0.037000,-18.931000,-9.313000,35.496000,30.040000
2.717,-1.069000,-0.224000,0.009000,-9.427000,-19.496000,24.275000,29.940000
2.729,-0.923000,-0.223000,0.024000,4.756000,-15.450000,17.725000,29.990000
2.738,-0.833000,-0.182000,0.054000,16.023000,-6.145000,15.580000,29.990000
2.749,-0.821000,-0.139000,0.083000,19.573000,3.954000,18.023000,29.940000
2.755,-0.881000,-0.074000,0.119000,17.977000,9.412000,23.718000,30.040000
2.768,-0.950000,-0.055000,0.150000,10.015000,5.290000,29.122000,29.990000
2.780,-0.981000,-0.101000,0.160000,1.641000,-3.985000,31.710000,30.040000
2.787,-0.951000,-0.098000,0.178000,-4.496000,-13.504000,35.397000,29.940000
2.799,-0.847000,-0.150000,0.159000,-5.878000,-11.802000,36.626000,29.990000
2.806,-0.764000,-0.107000,0.142000,-4.351000,-1.336000,42.626000,30.080000
2.818,-0.786000,-0.119000,0.129000,1.405000,12.679000,48.710000,30.080000
2.826,-0.903000,-0.118000,0.170000,7.282000,22.573000,48.779000,30.040000
2.839,-1.007000,-0.080000,0.198000,10.855000,26.847000,42.298000,29.990000
2.850,-1.060000,-0.029000,0.261000,8.290000,24.481000,33.710000,29.990000
2.857,-1.062000,0.026000,0.311000,-2.397000,15.221000,30.076000,30.040000
2.869,-1.015000,-0.004000,0.308000,-12.702000,3.443000,34.214000,30.040000
2.876,-0.915000,0.018000,0.283000,-23.763000,-1.580000,40.832000,29.990000
2.888,-0.867000,-0.039000,0.248000,-30.031000,-2.076000,47.992000,30.040000
2.895,-0.823000,-0.090000,0.223000,-28.397000,5.229000,52.382000,29.940000
2.907,-0.816000,-0.111000,0.191000,-23.183000,17.252000,51.412000,29.890000
2.919,-0.875000,-0.089000,0.178000,-16.863000,27.847000,45.878000,29.990000
2.928,-0.931000,-0.083000,0.167000,-12.260000,30.756000,42.847000,30.040000
2.939,-0.928000,0.001000,0.146000,-11.221000,32.809000,41.107000,30.040000
2.946,-0.948000,0.041000,0.133000,-17.710000,30.183000,41.885000,29.990000
2.958,-0.970000,0.078000,0.107000,-24.511000,25.298000,45.130000,29.990000
2.970,-0.957000,0.065000,0.075000,-28.527000,20.885000,47.443000,30.080000
2.977,-0.939000,0.057000,0.080000,-30.305000,17.580000,48.885000,29.940000
2.989,-0.911000,0.049000,0.054000,-30.183000,20.817000,46.053000,29.990000
2.997,-0.913000,0.046000,0.043000,-28.672000,23.053000,44.832000,29.990000
3.008,-0.922000,0.032000,0.024000,-24.840000,23.206000,46.878000,29.940000
3.015,-0.918000,0.052000,-0.003000,-22.458000,23.351000,48.786000,30.040000
3.028,-0.917000,0.079000,-0.020000,-22.336000,21.466000,50.519000,29.990000
3.041,-0.934000,0.117000,0.005000,-23.305000,15.802000,55.443000,30.040000
3.046,-0.929000,0.161000,0.015000,-25.038000,10.305000,61.450000,29.940000
3.059,-0.920000,0.226000,0.055000,-32.725000,8.214000,68.130000,30.080000
3.066,-0.966000,0.225000,0.093000,-40.115000,6.534000,71.183000,29.990000
3.078,-0.976000,0.161000,0.073000,-47.153000,3.458000,70.313000,30.040000
3.086,-0.938000,0.130000,0.034000,-50.802000,4.588000,68.015000,30.040000
3.097,-0.887000,0.037000,-0.011000,-50.069000,7.924000,66.397000,29.990000
3.110,-0.861000,0.006000,-0.069000,-42.496000,12.985000,66.748000,29.990000
3.116,-0.866000,0.041000,-0.075000,-30.626000,15.061000,69.702000,29.990000
3.129,-0.909000,0.091000,-0.036000,-16.649000,15.046000,72.359000,30.130000
3.137,-0.925000,0.176000,-0.002000,-8.206000,15.031000,73.115000,29.990000
3.148,-0.953000,0.268000,0.044000,-6.962000,14.672000,73.389000,29.990000
3.160,-0.979000,0.299000,0.036000,-10.084000,16.389000,73.046000,29.940000
3.167,-1.027000,0.350000,0.033000,-15.847000,14.824000,72.962000,30.040000
3.179,-1.060000,0.330000,0.011000,-23.282000,7.038000,71.160000,29.990000
3.188,-1.030000,0.326000,0.010000,-30.649000,2.115000,69.840000,30.130000
3.199,-1.022000,0.296000,0.022000,-38.176000,-8.191000,69.695000,30.040000
3.205,-0.968000,0.242000,-0.001000,-41.328000,-11.221000,72.000000,29.890000
3.217,-0.918000,0.281000,-0.011000,-37.405000,-13.450000,77.863000,29.990000
3.230,-0.907000,0.271000,-0.004000,-31.985000,-9.168000,78.756000,30.040000
3.237,-0.912000,0.282000,-0.035000,-21.794000,-0.863000,76.221000,30.130000
3.249,-0.932000,0.327000,-0.006000,-11.351000,8.137000,73.137000,29.890000
3.256,-1.022000,0.334000,0.042000,-6.015000,9.321000,66.344000,30.080000
3.268,-1.070000,0.352000,0.072000,-7.687000,3.374000,57.649000,30.080000
3.277,-1.038000,0.339000,0.115000,-16.908000,-6.641000,49.931000,30.040000
3.287,-0.912000,0.291000,0.099000,-27.649000,-13.595000,46.237000,29.990000
3.300,-0.741000,0.371000,0.060000,-26.969000,-10.214000,56.359000,29.990000
3.306,-0.683000,0.404000,0.030000,-19.626000,-1.214000,71.069000,29.940000
3.319,-0.730000,0.431000,0.009000,-6.153000,19.893000,78.435000,29.940000
3.327,-0.864000,0.462000,0.005000,6.588000,32.817000,78.061000,30.080000
3.338,-1.020000,0.489000,0.026000,15.290000,42.130000,66.756000,29.990000
3.346,-1.095000,0.502000,0.088000,13.565000,41.985000,50.878000,29.940000
3.357,-1.083000,0.429000,0.114000,11.573000,29.550000,41.115000,29.940000
3.370,-0.974000,0.372000,0.083000,2.664000,19.305000,36.359000,29.990000
3.377,-0.780000,0.448000,0.040000,3.763000,17.840000,46.992000,30.040000
3.389,-0.662000,0.502000,-0.012000,12.924000,28.649000,63.038000,29.940000
3.397,-0.729000,0.576000,-0.024000,20.809000,43.779000,72.458000,30.080000
3.408,-0.908000,0.588000,-0.014000,26.947000,53.603000,68.885000,29.990000
3.415,-1.070000,0.601000,0.006000,28.015000,52.344000,58.321000,29.990000
3.428,-1.171000,0.620000,0.033000,23.038000,43.908000,46.374000,29.940000
3.441,-1.152000,0.612000,0.060000,10.840000,30.924000,35.031000,29.890000
3.447,-1.090000,0.566000,0.052000,-3.809000,12.702000,28.214000,30.080000
3.459,-1.002000,0.537000,0.062000,-19.473000,-4.756000,28.611000,30.040000
3.466,-0.856000,0.483000,0.019000,-30.863000,-15.015000,31.985000,29.940000
3.478,-0.694000,0.522000,0.001000,-31.565000,-14.542000,43.534000,29.990000
3.487,-0.668000,0.512000,0.002000,-29.901000,-10.084000,56.763000,30.080000
3.497,-0.725000,0.508000,-0.029000,-27.542000,-1.656000,63.000000,30.040000
3.509,-0.823000,0.485000,-0.009000,-26.649000,1.901000,58.962000,30.040000
3.516,-0.874000,0.464000,0.013000,-26.763000,-0.740000,49.962000,29.990000
3.529,-0.849000,0.431000,0.039000,-31.275000,-7.687000,41.214000,29.990000
3.538,-0.733000,0.433000,0.037000,-36.878000,-9.397000,37.641000,30.040000
3.548,-0.591000,0.448000,-0.018000,-34.748000,-2.595000,44.176000,29.940000
3.560,-0.477000,0.492000,-0.091000,-22.336000,19.618000,53.176000,29.990000
3.567,-0.489000,0.554000,-0.146000,-2.397000,46.084000,62.153000,29.990000
3.579,-0.669000,0.625000,-0.141000,21.382000,65.198000,62.931000,30.130000
3.587,-0.890000,0.665000,-0.090000,33.550000,72.359000,54.496000,29.990000
3.598,-1.053000,0.733000,-0.012000,36.588000,64.611000,47.076000,30.080000
3.605,-1.154000,0.780000,0.059000,25.595000,45.099000,35.321000,29.940000
3.618,-1.121000,0.785000,0.097000,3.962000,22.595000,22.977000,29.940000
3.630,-1.023000,0.765000,0.087000,-19.595000,2.985000,14.565000,29.990000
3.639,-0.905000,0.702000,0.060000,-40.015000,-11.435000,14.160000,29.990000
3.649,-0.765000,0.632000,0.029000,-52.137000,-19.420000,16.908000,29.940000
3.656,-0.690000,0.570000,0.005000,-58.321000,-19.634000,21.962000,29.940000
3.668,-0.621000,0.537000,-0.010000,-56.771000,-16.649000,29.313000,29.990000
3.680,-0.599000,0.487000,-0.043000,-50.061000,-10.191000,36.137000,30.080000
3.687,-0.552000,0.489000,-0.047000,-37.023000,2.893000,43.656000,30.040000
3.700,-0.571000,0.503000,-0.051000,-23.870000,15.008000,51.466000,29.940000
3.706,-0.624000,0.521000,-0.035000,-12.221000,21.374000,58.282000,30.080000
3.718,-0.710000,0.566000,-0.032000,-5.618000,27.183000,59.435000,29.990000
3.727,-0.788000,0.616000,-0.008000,-6.740000,23.901000,58.695000,30.080000
3.738,-0.816000,0.627000,0.019000,-13.351000,16.237000,53.832000,30.040000
3.750,-0.789000,0.684000,0.030000,-23.038000,7.664000,47.588000,29.990000
3.757,-0.700000,0.658000,0.022000,-32.824000,4.931000,43.595000,29.990000
3.769,-0.592000,0.659000,0.001000,-32.718000,8.802000,41.954000,29.940000
3.778,-0.524000,0.642000,-0.021000,-30.649000,12.519000,46.275000,30.040000
3.788,-0.535000,0.624000,-0.067000,-24.473000,17.008000,53.794000,30.080000
3.801,-0.568000,0.628000,-0.066000,-17.595000,12.412000,63.435000,29.990000
3.807,-0.621000,0.621000,-0.070000,-13.702000,-0.206000,69.405000,30.040000
3.819,-0.646000,0.609000,-0.054000,-13.435000,-14.328000,70.595000,29.990000
3.828,-0.559000,0.574000,-0.097000,-13.603000,-18.885000,69.908000,29.990000
3.838,-0.409000,0.681000,-0.148000,1.656000,-12.237000,83.153000,29.940000
3.846,-0.387000,0.825000,-0.159000,22.664000,-3.069000,99.260000,29.940000
3.857,-0.516000,0.917000,-0.118000,37.183000,8.191000,106.763000,29.990000
3.869,-0.723000,1.001000,-0.056000,41.344000,5.405000,106.412000,29.990000
3.878,-0.933000,1.054000,0.029000,30.389000,-8.626000,96.229000,29.990000
3.889,-1.004000,1.035000,0.129000,5.427000,-30.412000,79.443000,29.940000
3.896,-0.937000,0.982000,0.178000,-24.252000,-52.985000,59.412000,29.890000
3.908,-0.739000,0.865000,0.148000,-48.374000,-63.527000,44.504000,29.990000
3.920,-0.477000,0.776000,0.057000,-55.710000,-54.198000,40.298000,29.940000
3.928,-0.288000,0.696000,-0.013000,-44.130000,-35.252000,45.351000,30.040000
3.939,-0.288000,0.604000,-0.062000,-23.756000,-13.748000,50.000000,30.080000
3.946,-0.348000,0.600000,-0.064000,-2.924000,-1.901000,57.244000,29.990000
3.958,-0.406000,0.616000,-0.001000,12.000000,0.641000,67.481000,30.040000
3.965,-0.384000,0.724000,0.052000,18.679000,0.359000,76.244000,30.040000
3.978,-0.377000,0.849000,0.111000,16.794000,-0.557000,87.832000,29.890000
3.990,-0.344000,0.925000,0.108000,13.298000,6.969000,95.321000,29.890000
3.997,-0.355000,1.021000,0.100000,12.473000,14.939000,108.611000,30.040000
4.009,-0.469000,1.026000,0.100000,12.435000,22.420000,106.809000,30.040000
4.016,-0.618000,1.021000,0.109000,7.176000,19.145000,96.603000,29.890000
4.029,-0.718000,0.997000,0.139000,-0.229000,5.275000,84.557000,29.890000
4.038,-0.691000,0.984000,0.123000,-9.267000,-10.710000,70.122000,29.940000
4.048,-0.531000,1.016000,0.108000,-15.519000,-19.710000,63.718000,29.990000
4.060,-0.375000,1.007000,0.057000,-17.069000,-20.061000,61.969000,29.990000
4.067,-0.233000,1.025000,0.016000,-12.763000,-8.252000,66.298000,29.940000
4.079,-0.211000,1.070000,-0.032000,-7.527000,11.687000,73.840000,30.040000
4.087,-0.301000,1.079000,-0.040000,1.824000,23.588000,79.450000,29.990000
4.099,-0.480000,1.064000,-0.028000,5.542000,27.573000,79.634000,29.990000
4.105,-0.641000,1.031000,-0.009000,8.122000,20.947000,71.145000,30.040000
4.118,-0.669000,1.010000,0.037000,5.145000,8.107000,58.412000,29.940000
4.130,-0.651000,1.020000,0.064000,-3.076000,-5.878000,44.908000,29.990000
4.138,-0.546000,0.987000,0.082000,-11.802000,-15.031000,33.939000,29.990000
4.149,-0.424000,0.971000,0.087000,-18.107000,-17.374000,31.282000,29.940000
4.156,-0.319000,0.909000,0.070000,-18.458000,-14.382000,30.901000,29.940000
4.168,-0.265000,0.923000,0.042000,-16.198000,-3.763000,33.725000,29.990000
4.179,-0.249000,0.908000,0.029000,-9.069000,2.366000,39.718000,29.890000
4.188,-0.264000,0.912000,0.038000,-2.985000,8.496000,42.710000,30.040000
4.200,-0.322000,0.915000,0.050000,-1.099000,11.916000,42.954000,30.040000
4.207,-0.357000,0.908000,0.060000,-1.733000,9.435000,40.832000,29.890000
4.220,-0.373000,0.906000,0.080000,-4.656000,5.450000,37.641000,30.080000
4.228,-0.322000,0.883000,0.044000,-6.618000,2.664000,32.977000,29.940000
4.239,-0.199000,0.927000,0.052000,-6.672000,11.603000,34.160000,29.990000
4.246,-0.142000,0.984000,0.019000,0.817000,19.489000,40.489000,29.990000
4.258,-0.182000,1.046000,0.013000,2.496000,32.237000,44.969000,30.040000
4.266,-0.308000,1.053000,0.015000,2.450000,30.847000,47.847000,30.040000
4.278,-0.415000,1.044000,0.042000,-0.359000,20.611000,47.321000,29.890000
4.284,-0.474000,1.019000,0.060000,-6.725000,3.450000,40.947000,29.990000
4.297,-0.478000,0.976000,0.106000,-15.603000,-13.504000,31.588000,30.040000
4.309,-0.448000,0.919000,0.122000,-24.855000,-30.992000,21.069000,30.040000
4.316,-0.332000,0.901000,0.095000,-33.023000,-37.115000,11.687000,29.990000
4.329,-0.107000,0.925000,0.075000,-35.260000,-24.023000,11.664000,29.990000
4.339,0.063000,1.050000,0.075000,-25.969000,1.092000,15.840000,30.040000
4.348,0.020000,1.068000,0.055000,-17.214000,21.137000,23.557000,29.990000
4.360,-0.101000,1.078000,0.043000,-7.504000,32.053000,33.328000,29.990000
4.367,-0.270000,1.063000,0.034000,-2.954000,28.061000,41.908000,30.040000
4.379,-0.378000,1.031000,0.030000,-3.084000,13.634000,44.282000,30.040000
4.388,-0.402000,0.981000,0.064000,-0.634000,-4.672000,42.336000,30.080000
4.399,-0.398000,0.951000,0.065000,-3.252000,-20.374000,32.916000,29.990000
4.405,-0.301000,0.963000,0.079000,-5.405000,-25.015000,20.038000,30.040000
4.418,-0.207000,1.017000,0.056000,-7.611000,-29.305000,16.176000,30.040000
4.430,-0.096000,1.021000,0.068000,-6.351000,-17.977000,15.160000,29.990000
4.439,-0.112000,1.031000,0.059000,-5.336000,-13.786000,18.626000,30.040000
4.450,-0.115000,1.009000,0.069000,-2.107000,-10.305000,24.740000,30.040000
4.456,-0.165000,0.998000,0.086000,-1.481000,-12.168000,31.046000,29.990000
4.468,-0.199000,0.966000,0.089000,1.191000,-20.977000,38.458000,29.990000
4.479,-0.159000,0.990000,0.072000,3.366000,-28.985000,46.534000,30.080000
4.488,-0.086000,1.076000,0.050000,7.527000,-26.084000,51.191000,29.940000
4.500,-0.096000,1.077000,0.048000,11.947000,-19.473000,55.183000,30.080000
4.507,-0.146000,1.052000,0.035000,17.176000,-7.290000,57.252000,29.990000
4.520,-0.214000,1.074000,0.036000,20.580000,-0.099000,54.992000,29.940000
4.528,-0.267000,1.070000,0.054000,20.847000,-0.015000,48.374000,30.040000
4.539,-0.283000,1.063000,0.076000,17.824000,-2.168000,42.863000,30.080000
4.547,-0.251000,1.082000,0.119000,9.076000,-4.832000,35.863000,29.990000
4.558,-0.222000,1.080000,0.118000,-0.817000,-6.084000,30.992000,29.940000
4.565,-0.191000,1.059000,0.097000,-7.489000,-7.710000,27.840000,29.990000
4.578,-0.160000,1.053000,0.078000,-9.557000,-9.779000,29.130000,29.990000
4.590,-0.162000,1.022000,0.051000,-10.084000,-14.824000,30.863000,30.040000
4.598,-0.150000,0.995000,0.035000,-9.328000,-17.908000,29.924000,29.940000
4.609,-0.131000,0.985000,0.049000,-8.366000,-21.084000,31.527000,29.990000
4.616,-0.114000,0.967000,0.065000,-7.947000,-22.466000,30.046000,30.080000
4.628,-0.084000,0.965000,0.064000,-8.053000,-19.977000,28.458000,29.990000
4.640,-0.052000,0.953000,0.065000,-5.588000,-16.351000,26.069000,30.040000
4.647,-0.025000,0.971000,0.075000,-0.458000,-9.191000,22.351000,29.990000
4.660,-0.033000,0.989000,0.073000,3.260000,-4.092000,21.580000,30.080000
4.667,-0.053000,0.998000,0.072000,7.183000,-2.076000,23.695000,29.940000
4.680,-0.076000,1.005000,0.071000,8.519000,-4.053000,24.122000,30.040000
4.687,-0.087000,1.001000,0.085000,9.122000,-6.252000,20.824000,29.990000
4.699,-0.056000,1.004000,0.098000,7.473000,-7.191000,19.656000,29.990000
4.705,-0.033000,1.001000,0.091000,6.122000,-7.527000,17.656000,30.040000
4.718,-0.002000,0.975000,0.064000,7.992000,-5.313000,15.000000,29.990000
4.728,-0.017000,0.965000,0.051000,12.046000,-6.557000,13.977000,30.080000
4.738,-0.028000,0.953000,0.041000,17.267000,-11.237000,15.397000,30.040000
4.750,-0.019000,0.955000,0.070000,21.817000,-16.511000,19.588000,30.040000
4.757,0.017000,0.972000,0.085000,23.229000,-21.649000,22.405000,29.990000
4.769,0.047000,0.988000,0.116000,22.427000,-22.298000,25.435000,29.990000
4.778,0.085000,1.039000,0.114000,20.061000,-18.443000,28.366000,29.990000
4.789,0.087000,1.073000,0.115000,16.565000,-13.855000,31.908000,30.040000
4.796,0.067000,1.131000,0.110000,9.931000,-7.634000,34.840000,29.990000
4.808,0.007000,1.109000,0.103000,4.137000,-6.107000,36.542000,29.990000
4.815,-0.025000,1.066000,0.080000,3.542000,-3.115000,33.443000,30.040000
4.828,-0.050000,1.062000,0.073000,3.580000,-1.550000,29.160000,30.040000
4.840,-0.066000,1.038000,0.065000,4.450000,-3.244000,27.198000,29.990000
4.847,-0.054000,1.031000,0.061000,4.466000,-2.916000,21.130000,29.940000
4.859,-0.030000,1.030000,0.062000,4.443000,-4.107000,17.672000,30.040000
4.867,0.005000,1.016000,0.063000,4.053000,-6.282000,17.824000,29.990000
4.879,0.033000,1.032000,0.070000,1.733000,-6.573000,20.122000,30.080000
4.887,0.045000,1.035000,0.062000,-2.229000,-7.023000,24.176000,30.040000
4.900,0.045000,1.020000,0.064000,-4.969000,-9.099000,28.489000,30.040000
4.905,0.043000,1.004000,0.068000,-5.702000,-9.366000,33.015000,29.990000
4.918,0.023000,0.988000,0.068000,-6.542000,-11.450000,33.168000,29.990000
4.928,0.007000,0.985000,0.066000,-7.901000,-12.107000,31.214000,29.990000
4.937,-0.004000,0.991000,0.089000,-8.366000,-15.053000,30.366000,30.040000
4.949,-0.018000,1.011000,0.106000,-10.664000,-17.878000,27.710000,29.990000
4.956,-0.013000,1.043000,0.099000,-12.878000,-20.359000,25.954000,30.080000
4.968,-0.019000,1.067000,0.073000,-14.458000,-21.153000,26.458000,30.040000
4.978,0.025000,1.078000,0.054000,-12.198000,-15.313000,24.252000,29.940000
4.988,0.014000,1.085000,0.033000,-9.878000,-5.382000,19.244000,29.990000
5.001,-0.024000,1.071000,0.025000,-5.466000,3.382000,13.557000,30.040000
5.007,-0.063000,1.073000,0.006000,-2.053000,9.336000,5.733000,29.940000
5.020,-0.100000,1.072000,0.019000,1.405000,10.282000,-2.450000,30.180000
5.028,-0.118000,1.046000,0.009000,2.015000,6.313000,-8.916000,29.890000
5.040,-0.101000,1.042000,0.017000,2.832000,-0.611000,-13.122000,30.040000
5.046,-0.059000,1.026000,0.039000,1.771000,-6.992000,-16.580000,30.040000
5.059,0.011000,0.974000,0.048000,1.328000,-11.718000,-18.473000,30.080000
5.065,0.068000,0.951000,0.050000,2.344000,-14.313000,-19.901000,30.080000
5.078,0.116000,0.963000,0.053000,2.450000,-15.718000,-18.206000,30.080000
5.091,0.187000,0.986000,0.075000,0.740000,-16.061000,-13.427000,29.940000
5.097,0.231000,0.994000,0.098000,-5.939000,-15.076000,-3.504000,30.080000
5.110,0.210000,0.957000,0.092000,-7.618000,-13.008000,5.344000,30.080000
5.116,0.218000,0.936000,0.091000,-8.313000,-9.832000,13.534000,30.040000
5.131,0.192000,0.919000,0.088000,-6.878000,-7.046000,19.885000,29.990000
5.140,0.146000,0.910000,0.080000,-5.130000,-5.336000,23.267000,29.990000
5.149,0.113000,0.937000,0.082000,-3.733000,-2.641000,23.473000,30.040000
5.156,0.083000,0.963000,0.075000,-4.824000,-2.122000,21.634000,29.940000
5.168,0.045000,0.972000,0.052000,-4.710000,-4.557000,19.672000,29.990000
5.177,0.014000,0.961000,0.057000,-2.756000,-10.641000,20.076000,29.890000
5.189,-0.017000,0.921000,0.027000,-1.046000,-23.412000,19.618000,30.040000
5.200,0.010000,0.915000,0.015000,4.198000,-34.534000,18.969000,30.040000
5.206,0.057000,0.930000,-0.003000,10.916000,-42.863000,18.275000,30.080000
5.219,0.139000,0.973000,0.049000,13.008000,-44.252000,19.069000,29.990000
5.228,0.203000,1.019000,0.062000,13.870000,-38.206000,25.130000,30.040000
5.239,0.203000,1.085000,0.103000,7.214000,-29.305000,32.092000,30.040000
5.247,0.134000,1.098000,0.101000,1.099000,-21.885000,35.840000,29.990000
5.258,0.125000,1.057000,0.094000,-0.840000,-16.580000,35.336000,30.040000
5.263,0.110000,1.068000,0.082000,-1.985000,-7.427000,26.679000,30.040000
5.278,0.094000,1.028000,0.055000,-4.527000,0.977000,17.931000,29.990000
5.290,0.076000,1.001000,0.035000,-5.145000,5.695000,10.359000,29.990000
5.297,0.072000,1.006000,-0.001000,-4.244000,7.641000,4.870000,30.130000
5.310,0.064000,1.029000,-0.008000,-2.450000,4.908000,3.786000,30.040000
5.317,0.074000,1.036000,0.003000,-0.870000,0.374000,6.588000,29.990000
5.329,0.073000,1.033000,0.020000,1.458000,-2.282000,9.366000,29.990000
5.338,0.114000,1.026000,0.037000,4.626000,0.641000,8.290000,30.040000
5.349,0.117000,1.016000,0.050000,4.489000,5.855000,2.565000,30.130000
5.356,0.106000,0.997000,0.048000,4.053000,7.527000,-0.519000,29.990000
5.369,0.098000,0.992000,0.051000,4.176000,5.634000,-1.221000,29.990000
5.378,0.115000,0.997000,0.068000,1.893000,2.427000,-0.443000,30.040000
5.390,0.143000,0.990000,0.076000,0.557000,0.916000,2.695000,30.080000
5.398,0.151000,0.992000,0.074000,-0.061000,2.214000,4.618000,29.990000
5.409,0.141000,0.991000,0.081000,-0.847000,6.145000,3.939000,30.040000
5.416,0.124000,0.970000,0.078000,0.458000,9.573000,3.061000,30.130000
5.429,0.119000,0.977000,0.083000,1.908000,13.664000,-1.206000,30.080000
5.438,0.111000,0.968000,0.071000,1.305000,14.023000,-4.046000,29.890000
5.449,0.101000,0.963000,0.064000,3.649000,10.053000,0.237000,30.130000
5.456,0.096000,1.000000,0.050000,2.863000,4.733000,4.595000,30.130000
5.469,0.101000,1.021000,0.060000,0.756000,0.695000,6.061000,30.080000
5.478,0.094000,1.009000,0.067000,-0.588000,-2.008000,6.824000,30.080000
5.489,0.080000,1.003000,0.056000,-1.015000,-3.420000,5.511000,30.040000
5.496,0.075000,1.001000,0.072000,-0.504000,-4.489000,2.779000,30.040000
5.508,0.071000,1.008000,0.083000,-1.107000,-6.305000,-0.328000,29.990000
5.513,0.070000,1.003000,0.090000,-4.244000,-8.695000,-2.557000,29.990000
5.528,0.124000,0.996000,0.081000,-5.435000,-8.802000,-5.863000,30.040000
5.541,0.174000,1.001000,0.077000,-6.267000,-6.298000,-4.145000,29.990000
5.547,0.163000,1.000000,0.055000,-6.489000,-3.794000,-0.565000,30.080000
5.559,0.132000,0.990000,0.064000,-6.176000,-1.954000,0.992000,29.940000
5.566,0.156000,0.965000,0.052000,-3.618000,2.427000,-2.603000,30.040000
5.580,0.206000,0.976000,0.051000,-1.595000,7.519000,-5.672000,29.990000
5.587,0.196000,0.968000,0.043000,1.473000,12.282000,-4.244000,29.990000
5.599,0.165000,0.978000,0.047000,1.542000,13.916000,-2.740000,30.040000
5.606,0.135000,0.980000,0.052000,-0.053000,10.992000,0.382000,30.130000
5.619,0.138000,0.967000,0.036000,1.840000,6.603000,3.069000,29.990000
5.627,0.140000,0.992000,0.048000,1.878000,4.443000,5.550000,30.080000
5.639,0.123000,0.996000,0.048000,1.099000,3.405000,6.702000,29.940000
5.647,0.084000,1.000000,0.064000,-0.359000,0.664000,6.466000,29.990000
5.658,0.094000,1.008000,0.077000,-1.092000,-1.985000,3.252000,29.990000
5.665,0.104000,1.017000,0.082000,-3.366000,-5.107000,1.641000,29.990000
5.678,0.112000,0.997000,0.070000,-4.969000,-7.099000,0.008000,29.940000
5.687,0.167000,0.969000,0.052000,-5.550000,-6.786000,-1.641000,30.080000
5.697,0.197000,0.946000,0.034000,-3.885000,-4.275000,-1.786000,29.990000
5.710,0.215000,0.950000,0.039000,-0.687000,-1.031000,0.015000,29.940000
5.717,0.207000,0.963000,0.054000,1.763000,2.198000,2.382000,29.940000
5.730,0.178000,0.984000,0.081000,2.122000,4.198000,4.046000,30.080000
5.737,0.135000,1.011000,0.086000,-0.008000,3.450000,4.824000,30.080000
5.750,0.097000,1.007000,0.087000,-2.740000,-0.084000,4.412000,30.040000
5.757,0.060000,1.002000,0.081000,-5.176000,-5.794000,3.679000,30.040000
5.769,0.061000,0.990000,0.061000,-6.824000,-13.290000,4.626000,30.080000
5.778,0.097000,0.977000,0.064000,-6.267000,-18.038000,4.901000,29.990000
5.789,0.130000,0.983000,0.074000,-5.916000,-18.725000,5.313000,30.130000
5.796,0.162000,0.985000,0.084000,-5.214000,-14.771000,5.046000,30.040000
5.808,0.177000,1.009000,0.079000,-5.634000,-8.313000,4.649000,30.080000
5.815,0.173000,1.003000,0.059000,-5.740000,-2.618000,4.794000,30.080000
5.828,0.138000,0.994000,0.049000,-4.924000,-0.153000,5.557000,30.040000
5.837,0.121000,0.986000,0.037000,-3.450000,0.344000,5.656000,30.130000
5.848,0.096000,0.984000,0.040000,-2.634000,-1.160000,5.206000,29.990000
5.853,0.099000,0.972000,0.035000,-1.763000,-3.206000,3.443000,30.130000
5.867,0.122000,0.973000,0.034000,-1.466000,-4.237000,1.321000,30.040000
5.880,0.146000,0.975000,0.061000,0.260000,-7.076000,0.878000,29.990000
5.887,0.158000,0.997000,0.069000,-1.061000,-7.931000,1.802000,29.990000
5.900,0.176000,1.004000,0.073000,-2.527000,-8.542000,3.603000,30.040000
5.907,0.225000,0.989000,0.074000,-3.092000,-4.947000,4.214000,30.130000
5.919,0.240000,0.979000,0.066000,-0.382000,1.122000,8.359000,29.990000
5.928,0.207000,0.979000,0.062000,1.344000,5.840000,12.618000,29.990000
5.941,0.139000,0.973000,0.061000,1.557000,7.817000,11.595000,30.040000
5.947,0.122000,0.963000,0.059000,1.206000,8.420000,6.084000,30.130000
5.959,0.125000,0.978000,0.048000,1.374000,5.679000,4.076000,29.990000
5.966,0.123000,0.981000,0.052000,2.336000,2.748000,3.580000,30.080000
5.979,0.137000,0.990000,0.059000,1.298000,0.710000,2.053000,30.080000
5.987,0.168000,0.993000,0.065000,1.931000,1.779000,0.611000,30.040000
5.999,0.188000,0.988000,0.067000,2.038000,5.069000,-0.710000,30.080000
6.006,0.190000,0.987000,0.075000,3.008000,10.481000,-0.458000,29.990000
6.019,0.195000,0.983000,0.082000,4.809000,14.710000,1.542000,30.040000
6.028,0.166000,0.982000,0.075000,3.519000,17.191000,0.504000,30.040000
6.040,0.145000,0.993000,0.071000,1.626000,16.115000,0.527000,30.080000
6.047,0.131000,1.006000,0.054000,-0.542000,11.420000,1.527000,30.040000
6.059,0.136000,0.998000,0.051000,-2.031000,6.603000,2.305000,29.940000
6.066,0.126000,0.994000,0.053000,-2.542000,2.641000,2.977000,29.990000
6.079,0.127000,0.969000,0.044000,-1.603000,0.702000,2.038000,29.990000
6.087,0.157000,0.972000,0.054000,0.389000,2.710000,-1.832000,29.940000
6.100,0.176000,0.981000,0.060000,1.473000,4.519000,-3.168000,29.940000
6.105,0.170000,0.970000,0.070000,1.641000,5.351000,-1.450000,30.080000
6.135,0.164000,0.964000,0.060000,1.252000,4.046000,-0.122000,29.990000
6.135,0.164000,0.971000,0.065000,0.870000,1.611000,2.122000,30.080000
