time_sec,ax,ay,az,gx,gy,gz,temp_c
0.012,0.011000,1.029000,0.189000,11.282000,48.145000,-24.565000,30.180000
0.019,0.024000,1.022000,0.166000,7.618000,55.725000,-22.351000,30.220000
0.026,-0.002000,0.992000,0.147000,10.496000,59.595000,-17.794000,30.130000
0.038,-0.027000,0.991000,0.142000,14.687000,62.702000,-15.573000,30.180000
0.045,-0.061000,0.988000,0.128000,15.962000,65.626000,-16.336000,30.180000
0.057,-0.105000,0.989000,0.120000,15.626000,63.618000,-16.511000,30.130000
0.069,-0.139000,1.003000,0.121000,13.298000,58.473000,-17.855000,30.130000
0.076,-0.153000,0.991000,0.094000,14.412000,52.038000,-20.550000,30.180000
0.089,-0.135000,0.996000,0.112000,12.496000,43.786000,-19.985000,30.130000
0.096,-0.121000,0.999000,0.101000,13.137000,37.206000,-21.847000,30.220000
0.109,-0.074000,0.994000,0.120000,13.382000,37.031000,-27.427000,30.180000
0.117,-0.039000,1.018000,0.119000,12.511000,41.427000,-29.618000,30.180000
0.127,-0.038000,1.032000,0.118000,11.595000,44.618000,-27.718000,30.080000
0.142,-0.066000,1.051000,0.120000,11.038000,44.443000,-25.420000,30.220000
0.146,-0.109000,1.040000,0.114000,9.947000,41.824000,-24.565000,30.270000
0.158,-0.136000,1.023000,0.088000,12.275000,31.374000,-21.718000,30.180000
0.165,-0.127000,1.019000,0.093000,16.870000,21.038000,-20.450000,30.130000
0.177,-0.112000,1.037000,0.113000,19.305000,16.702000,-20.687000,30.130000
0.185,-0.084000,1.031000,0.122000,20.321000,18.015000,-24.244000,30.080000
0.197,-0.060000,1.060000,0.156000,19.740000,24.779000,-27.695000,30.180000
0.209,-0.042000,1.068000,0.172000,15.458000,32.908000,-30.282000,30.130000
0.216,-0.055000,1.057000,0.168000,11.046000,40.008000,-31.511000,30.180000
0.229,-0.085000,1.030000,0.156000,9.092000,41.985000,-30.466000,30.080000
0.235,-0.127000,1.020000,0.137000,9.046000,37.756000,-27.725000,30.220000
0.248,-0.154000,1.013000,0.133000,9.931000,32.496000,-25.130000,30.130000
0.255,-0.177000,1.017000,0.154000,10.267000,27.420000,-21.985000,30.180000
0.267,-0.164000,1.029000,0.169000,9.588000,27.275000,-21.924000,30.180000
0.280,-0.138000,1.044000,0.181000,7.954000,29.802000,-24.344000,30.080000
0.286,-0.146000,1.054000,0.170000,5.053000,33.786000,-28.344000,30.130000
0.299,-0.146000,1.028000,0.141000,7.031000,36.939000,-31.344000,30.080000
0.305,-0.134000,1.071000,0.141000,9.824000,40.527000,-30.069000,30.180000
0.318,-0.179000,1.103000,0.117000,6.763000,45.588000,-27.305000,30.130000
0.325,-0.236000,1.118000,0.096000,5.573000,48.656000,-22.740000,30.130000
0.338,-0.274000,1.135000,0.094000,5.359000,45.824000,-20.511000,30.080000
0.350,-0.330000,1.117000,0.093000,6.176000,38.511000,-22.328000,30.130000
0.356,-0.383000,1.105000,0.081000,5.305000,25.130000,-26.183000,30.130000
0.369,-0.393000,1.067000,0.071000,7.679000,7.641000,-29.305000,30.180000
0.376,-0.353000,1.094000,0.065000,8.855000,-3.756000,-37.115000,30.180000
0.389,-0.302000,1.136000,0.068000,6.496000,-6.611000,-47.893000,30.130000
0.396,-0.235000,1.107000,0.073000,4.924000,-4.634000,-55.947000,30.220000
0.408,-0.176000,1.072000,0.078000,8.061000,1.489000,-60.489000,30.080000
0.415,-0.174000,1.054000,0.058000,14.061000,7.878000,-66.015000,30.180000
0.427,-0.183000,1.016000,0.069000,14.489000,13.191000,-64.420000,30.180000
0.440,-0.213000,1.033000,0.048000,18.130000,17.641000,-60.611000,30.040000
0.446,-0.249000,1.042000,0.056000,20.908000,17.595000,-53.137000,30.180000
0.458,-0.290000,1.054000,0.058000,19.565000,13.053000,-49.840000,30.180000
0.465,-0.345000,1.062000,0.058000,12.550000,4.626000,-50.420000,30.130000
0.480,-0.354000,1.024000,0.025000,6.618000,-7.481000,-55.069000,30.080000
0.485,-0.323000,1.005000,0.013000,0.962000,-18.832000,-60.099000,30.080000
0.497,-0.268000,0.973000,0.008000,-1.351000,-24.565000,-64.153000,30.220000
0.509,-0.187000,0.979000,0.003000,-5.275000,-27.374000,-58.153000,30.130000
0.516,-0.169000,0.987000,-0.002000,-9.015000,-22.534000,-45.496000,30.080000
0.528,-0.205000,0.967000,0.009000,-4.687000,-19.473000,-29.740000,30.180000
0.535,-0.249000,0.982000,0.041000,-0.176000,-14.389000,-20.756000,30.220000
0.548,-0.283000,1.052000,0.094000,0.626000,-10.008000,-17.870000,30.220000
0.559,-0.310000,1.076000,0.129000,1.527000,-9.794000,-19.076000,30.180000
0.566,-0.315000,1.069000,0.148000,0.908000,-6.893000,-24.672000,30.180000
0.580,-0.296000,1.100000,0.152000,-2.557000,0.832000,-32.130000,30.220000
0.586,-0.302000,1.040000,0.152000,-10.740000,10.099000,-40.962000,30.130000
0.598,-0.295000,0.966000,0.091000,-13.321000,15.466000,-40.718000,30.080000
0.604,-0.309000,0.976000,0.073000,-9.603000,20.756000,-39.321000,30.130000
0.617,-0.365000,0.921000,0.048000,-5.802000,23.160000,-38.748000,30.040000
0.630,-0.397000,0.881000,0.025000,3.802000,23.145000,-39.916000,30.180000
0.637,-0.415000,0.928000,0.055000,4.237000,23.550000,-41.908000,30.180000
0.649,-0.449000,0.915000,0.061000,6.878000,17.290000,-41.611000,30.130000
0.655,-0.437000,0.917000,0.031000,11.450000,13.504000,-44.366000,30.130000
0.668,-0.427000,0.963000,0.064000,8.916000,8.809000,-42.366000,30.080000
0.675,-0.394000,0.921000,0.057000,7.771000,9.511000,-44.427000,30.270000
0.688,-0.410000,0.919000,0.038000,6.076000,14.550000,-45.962000,30.130000
0.699,-0.433000,0.923000,0.014000,8.443000,14.229000,-44.802000,30.220000
0.706,-0.423000,0.924000,0.008000,13.092000,14.847000,-45.824000,30.080000
0.719,-0.451000,0.924000,0.006000,19.542000,17.046000,-44.374000,30.180000
0.726,-0.489000,0.924000,0.022000,22.809000,6.779000,-42.183000,30.130000
0.738,-0.531000,0.892000,0.042000,22.260000,0.710000,-50.511000,30.130000
0.746,-0.547000,0.857000,0.015000,18.511000,-9.573000,-60.565000,30.180000
0.757,-0.494000,0.815000,0.009000,13.718000,-17.015000,-70.092000,30.180000
0.769,-0.386000,0.859000,-0.007000,16.015000,-14.435000,-75.595000,30.130000
0.776,-0.327000,0.904000,-0.010000,20.802000,-9.740000,-70.351000,30.080000
0.788,-0.287000,0.885000,-0.021000,30.748000,-2.107000,-63.573000,30.180000
0.796,-0.306000,0.979000,-0.012000,29.618000,9.771000,-51.901000,30.130000
0.807,-0.412000,0.956000,-0.017000,27.908000,19.305000,-45.137000,30.130000
0.819,-0.495000,0.958000,-0.006000,26.298000,26.366000,-40.458000,30.180000
0.826,-0.624000,0.920000,-0.022000,24.389000,21.656000,-41.992000,30.270000
0.840,-0.677000,0.858000,-0.026000,21.542000,16.023000,-52.023000,30.130000
0.846,-0.698000,0.759000,-0.048000,20.947000,7.885000,-62.756000,30.220000
0.861,-0.629000,0.739000,-0.068000,21.153000,2.221000,-73.740000,30.180000
0.864,-0.555000,0.772000,-0.083000,22.550000,4.198000,-78.069000,30.180000
0.877,-0.478000,0.768000,-0.089000,24.718000,11.076000,-78.298000,30.180000
0.890,-0.484000,0.910000,-0.067000,28.649000,17.275000,-67.092000,30.130000
0.896,-0.607000,0.896000,-0.044000,28.260000,15.992000,-54.191000,30.180000
0.908,-0.698000,0.835000,-0.041000,25.542000,9.290000,-49.031000,30.180000
0.915,-0.754000,0.863000,-0.002000,19.855000,2.252000,-50.947000,30.130000
0.927,-0.769000,0.730000,-0.043000,19.931000,-14.305000,-55.771000,30.180000
0.940,-0.735000,0.695000,-0.054000,19.458000,-20.046000,-63.427000,30.180000
0.946,-0.671000,0.753000,-0.062000,21.710000,-17.405000,-69.916000,30.130000
0.958,-0.605000,0.741000,-0.068000,26.412000,-9.328000,-72.710000,30.130000
0.965,-0.578000,0.815000,-0.061000,34.580000,2.344000,-65.885000,30.080000
0.977,-0.688000,0.827000,-0.044000,38.603000,7.931000,-58.832000,30.180000
0.990,-0.762000,0.851000,-0.031000,38.160000,10.168000,-57.969000,30.040000
0.997,-0.825000,0.867000,-0.023000,36.794000,5.817000,-56.092000,30.220000
1.008,-0.877000,0.831000,-0.008000,32.191000,-7.359000,-57.145000,30.180000
1.015,-0.853000,0.806000,-0.007000,27.901000,-12.298000,-62.779000,30.180000
1.027,-0.830000,0.796000,-0.021000,26.313000,-17.275000,-67.740000,30.270000
1.040,-0.765000,0.754000,-0.030000,27.817000,-16.137000,-74.733000,30.130000
1.047,-0.747000,0.757000,-0.042000,30.672000,-9.450000,-79.252000,30.270000
1.058,-0.738000,0.757000,-0.036000,33.924000,-5.809000,-78.107000,30.180000
1.065,-0.758000,0.752000,-0.010000,35.496000,-3.015000,-79.053000,30.040000
1.077,-0.773000,0.755000,-0.018000,33.359000,-0.687000,-81.588000,30.180000
1.090,-0.773000,0.823000,-0.015000,29.115000,-1.733000,-78.695000,30.180000
1.096,-0.798000,0.792000,-0.014000,26.885000,-5.504000,-78.176000,30.220000
1.108,-0.800000,0.829000,-0.037000,19.160000,-8.809000,-78.344000,30.220000
1.115,-0.838000,0.828000,-0.071000,15.290000,-15.824000,-73.496000,30.180000
1.127,-0.875000,0.737000,-0.070000,9.489000,-21.634000,-73.191000,30.080000
1.140,-0.887000,0.670000,-0.048000,5.969000,-29.473000,-77.069000,30.130000
1.147,-0.874000,0.598000,-0.044000,0.405000,-37.244000,-85.679000,30.220000
1.159,-0.762000,0.592000,-0.061000,-4.649000,-36.008000,-94.931000,30.270000
1.165,-0.660000,0.603000,-0.073000,-5.702000,-31.206000,-96.099000,30.180000
1.179,-0.579000,0.554000,-0.095000,-0.756000,-22.015000,-91.947000,30.180000
1.190,-0.568000,0.531000,-0.118000,7.412000,-9.725000,-85.244000,30.220000
1.197,-0.625000,0.530000,-0.119000,15.031000,-2.664000,-76.802000,30.180000
1.208,-0.681000,0.510000,-0.098000,22.000000,-1.076000,-71.656000,30.180000
1.215,-0.742000,0.486000,-0.065000,25.695000,-3.069000,-68.489000,30.130000
1.227,-0.770000,0.521000,-0.032000,25.740000,-9.901000,-66.031000,30.220000
1.240,-0.744000,0.478000,-0.050000,22.824000,-10.260000,-66.748000,30.080000
1.247,-0.712000,0.492000,-0.053000,24.580000,-9.137000,-62.504000,30.080000
1.258,-0.715000,0.493000,-0.037000,22.885000,-9.107000,-55.634000,30.130000
1.265,-0.743000,0.499000,-0.038000,20.977000,-8.298000,-51.092000,30.180000
1.277,-0.781000,0.488000,-0.034000,19.374000,-8.878000,-48.015000,30.180000
1.285,-0.774000,0.485000,-0.014000,19.435000,-9.328000,-45.733000,30.130000
1.297,-0.795000,0.486000,-0.025000,15.893000,-10.489000,-43.000000,30.130000
1.309,-0.781000,0.468000,0.005000,17.344000,-13.595000,-38.015000,30.180000
1.315,-0.819000,0.470000,0.014000,10.168000,-12.649000,-36.794000,30.080000
1.328,-0.792000,0.408000,-0.002000,4.893000,-12.672000,-38.069000,30.080000
1.335,-0.747000,0.388000,-0.023000,0.504000,-8.687000,-35.908000,30.130000
1.347,-0.730000,0.369000,-0.049000,-1.840000,-4.443000,-33.725000,30.180000
1.359,-0.736000,0.370000,-0.063000,1.534000,-2.084000,-26.939000,30.080000
1.366,-0.777000,0.368000,-0.069000,3.626000,-1.046000,-15.588000,30.130000
1.380,-0.815000,0.365000,-0.098000,6.153000,-2.924000,-6.023000,30.130000
1.385,-0.873000,0.417000,-0.092000,7.069000,-1.840000,-3.687000,30.180000
1.398,-0.923000,0.384000,-0.093000,3.366000,-1.885000,-5.916000,30.180000
1.404,-0.936000,0.390000,-0.129000,3.290000,1.756000,-10.061000,30.130000
1.417,-0.965000,0.431000,-0.122000,7.397000,1.122000,-13.069000,30.180000
1.429,-0.997000,0.378000,-0.125000,10.183000,1.695000,-21.366000,30.180000
1.436,-1.022000,0.382000,-0.108000,12.618000,0.466000,-31.198000,30.130000
1.448,-1.032000,0.333000,-0.084000,13.214000,-2.275000,-41.198000,30.130000
1.455,-0.995000,0.378000,-0.084000,9.824000,-5.107000,-49.427000,30.180000
1.467,-0.940000,0.361000,-0.105000,7.420000,-7.305000,-54.939000,30.080000
1.473,-0.853000,0.399000,-0.106000,6.763000,-7.466000,-50.718000,30.180000
1.487,-0.863000,0.385000,-0.101000,10.099000,-10.939000,-41.817000,30.220000
1.499,-0.865000,0.324000,-0.072000,10.924000,-10.107000,-38.702000,30.180000
1.505,-0.890000,0.353000,-0.056000,9.992000,-5.321000,-36.748000,30.180000
1.518,-0.928000,0.369000,-0.024000,8.176000,-3.183000,-38.405000,30.130000
1.524,-0.934000,0.343000,-0.026000,3.885000,1.252000,-46.481000,30.220000
1.540,-0.967000,0.387000,-0.076000,-3.893000,4.206000,-49.672000,30.080000
1.549,-1.020000,0.356000,-0.135000,-11.733000,-0.924000,-53.542000,30.270000
1.556,-0.999000,0.293000,-0.188000,-11.198000,-3.015000,-58.863000,30.130000
1.568,-0.979000,0.272000,-0.207000,-1.412000,-11.588000,-57.618000,30.180000
1.574,-0.938000,0.166000,-0.202000,12.206000,-10.076000,-61.092000,30.270000
1.587,-0.931000,0.131000,-0.173000,27.137000,-5.275000,-64.275000,30.040000
1.599,-0.954000,0.133000,-0.103000,38.641000,-6.053000,-66.527000,30.130000
1.606,-0.941000,0.125000,-0.064000,47.031000,-7.145000,-72.214000,30.270000
1.618,-0.916000,0.206000,-0.009000,47.359000,-11.267000,-70.168000,30.180000
1.625,-0.906000,0.240000,0.023000,45.855000,-12.588000,-64.733000,30.180000
1.637,-0.896000,0.286000,0.025000,36.901000,-14.725000,-54.473000,30.130000
1.649,-0.989000,0.330000,0.037000,26.313000,-18.412000,-44.137000,30.180000
1.656,-1.076000,0.210000,0.028000,18.954000,-27.641000,-41.267000,30.180000
1.668,-1.077000,0.173000,0.038000,15.015000,-33.061000,-44.397000,30.220000
1.675,-1.055000,0.146000,0.033000,7.588000,-35.000000,-52.878000,30.130000
1.688,-0.973000,0.138000,0.033000,9.878000,-31.924000,-59.008000,30.180000
1.700,-0.942000,0.176000,0.026000,9.321000,-30.046000,-57.321000,30.130000
1.706,-0.933000,0.183000,0.008000,6.954000,-25.519000,-54.351000,30.130000
1.718,-0.956000,0.199000,-0.030000,2.237000,-23.664000,-47.908000,30.180000
1.725,-1.003000,0.192000,-0.075000,-1.847000,-26.969000,-37.450000,30.270000
1.737,-1.047000,0.116000,-0.109000,-4.305000,-36.992000,-35.076000,30.220000
1.750,-1.027000,0.070000,-0.115000,0.374000,-39.954000,-39.992000,30.040000
1.756,-0.995000,0.031000,-0.099000,7.985000,-41.733000,-44.405000,30.080000
1.768,-0.925000,-0.009000,-0.108000,16.924000,-34.824000,-52.779000,30.180000
1.775,-0.855000,0.023000,-0.070000,25.420000,-22.618000,-56.107000,30.130000
1.787,-0.904000,0.033000,-0.067000,28.870000,-14.962000,-53.992000,30.130000
1.799,-0.899000,0.062000,-0.069000,32.817000,-9.824000,-49.229000,30.180000
1.806,-0.955000,0.083000,-0.059000,32.595000,-15.557000,-37.802000,30.130000
1.818,-1.005000,0.033000,-0.067000,26.634000,-22.481000,-30.527000,30.220000
1.825,-1.049000,0.029000,-0.040000,30.679000,-30.443000,-29.908000,30.180000
1.837,-1.060000,0.024000,-0.001000,35.183000,-35.656000,-33.260000,30.180000
1.849,-1.036000,0.015000,0.049000,36.786000,-34.214000,-42.351000,30.130000
1.856,-1.010000,0.052000,0.087000,39.260000,-28.137000,-53.145000,30.130000
1.868,-0.958000,0.024000,0.113000,41.985000,-19.191000,-59.260000,30.180000
1.875,-0.916000,0.033000,0.125000,41.504000,-12.023000,-63.115000,30.180000
1.888,-0.916000,0.066000,0.129000,37.794000,-5.092000,-62.214000,30.220000
1.900,-0.967000,0.009000,0.124000,33.870000,-8.496000,-56.366000,30.180000
1.906,-1.008000,-0.008000,0.154000,32.962000,-16.298000,-54.656000,30.180000
1.918,-1.050000,0.005000,0.211000,29.267000,-26.901000,-53.931000,30.180000
1.925,-1.042000,0.047000,0.258000,22.885000,-36.466000,-56.511000,30.220000
1.939,-1.000000,0.045000,0.299000,12.214000,-43.412000,-55.053000,30.080000
1.943,-0.929000,0.021000,0.292000,1.046000,-41.473000,-53.947000,30.270000
1.956,-0.879000,-0.021000,0.241000,-11.885000,-32.511000,-50.565000,30.220000
1.968,-0.906000,-0.026000,0.179000,-16.130000,-29.489000,-45.237000,30.220000
1.975,-0.956000,-0.072000,0.097000,-20.443000,-31.214000,-43.840000,30.180000
1.987,-1.000000,-0.073000,0.066000,-21.275000,-35.542000,-44.290000,30.220000
1.999,-1.052000,-0.150000,0.042000,-17.931000,-45.275000,-45.595000,30.320000
2.006,-0.995000,-0.220000,0.068000,-9.099000,-48.618000,-57.206000,30.180000
2.018,-0.897000,-0.216000,0.099000,0.550000,-40.641000,-68.412000,30.180000
2.025,-0.847000,-0.211000,0.112000,7.557000,-36.046000,-70.420000,30.130000
2.037,-0.804000,-0.162000,0.169000,11.771000,-26.206000,-70.069000,30.220000
2.049,-0.837000,-0.132000,0.179000,8.168000,-21.695000,-64.405000,30.180000
2.056,-0.842000,-0.170000,0.172000,5.206000,-22.863000,-61.076000,30.180000
2.068,-0.822000,-0.177000,0.170000,2.275000,-22.229000,-58.954000,30.220000
2.075,-0.789000,-0.194000,0.170000,2.969000,-18.916000,-56.649000,30.180000
2.087,-0.790000,-0.236000,0.193000,7.092000,-16.702000,-54.191000,30.080000
2.099,-0.833000,-0.206000,0.246000,7.221000,-10.519000,-52.420000,30.130000
2.106,-0.897000,-0.147000,0.240000,1.084000,-10.031000,-52.786000,30.220000
2.118,-0.926000,-0.167000,0.216000,-9.695000,-10.504000,-54.267000,30.180000
2.125,-0.954000,-0.163000,0.172000,-18.137000,-10.580000,-49.473000,30.180000
2.137,-1.001000,-0.206000,0.149000,-25.458000,-15.794000,-49.305000,30.130000
2.149,-1.006000,-0.265000,0.111000,-22.832000,-25.000000,-48.366000,30.130000
2.155,-0.986000,-0.235000,0.109000,-20.282000,-38.382000,-42.710000,30.270000
2.167,-1.004000,-0.190000,0.149000,-25.137000,-51.511000,-34.595000,30.180000
2.180,-1.068000,-0.126000,0.146000,-35.656000,-64.733000,-23.389000,30.130000
2.186,-1.035000,-0.251000,0.180000,-39.992000,-72.504000,-22.305000,30.220000
2.198,-0.942000,-0.286000,0.147000,-26.939000,-57.603000,-31.740000,30.180000
2.204,-0.994000,-0.487000,0.085000,-40.260000,-39.458000,-48.481000,30.180000
2.217,-0.830000,-0.565000,0.085000,-13.771000,-46.099000,-63.855000,30.130000
2.229,-0.759000,-0.511000,0.091000,12.985000,-39.290000,-68.649000,30.080000
2.236,-0.653000,-0.471000,0.192000,39.550000,-29.244000,-67.130000,30.180000
2.248,-0.642000,-0.307000,0.343000,45.290000,-18.176000,-62.824000,30.130000
2.254,-0.806000,-0.245000,0.366000,27.473000,-21.069000,-44.542000,30.220000
2.266,-0.875000,-0.339000,0.344000,8.779000,-35.718000,-38.855000,30.180000
2.280,-0.758000,-0.380000,0.311000,3.954000,-43.038000,-39.412000,30.180000
2.285,-0.615000,-0.475000,0.294000,9.504000,-37.191000,-38.725000,30.220000
2.298,-0.536000,-0.421000,0.315000,15.893000,-21.878000,-36.405000,30.320000
2.304,-0.626000,-0.303000,0.385000,16.008000,-8.015000,-29.748000,30.270000
2.317,-0.763000,-0.306000,0.379000,7.939000,-2.229000,-25.145000,30.180000
2.330,-0.804000,-0.259000,0.364000,-2.656000,-3.321000,-20.580000,30.130000
2.336,-0.882000,-0.279000,0.288000,-14.412000,-8.359000,-18.137000,30.180000
2.348,-0.912000,-0.391000,0.212000,-12.893000,-14.504000,-17.160000,30.080000
2.354,-0.906000,-0.389000,0.174000,-8.557000,-19.046000,-15.756000,30.180000
2.366,-0.906000,-0.425000,0.163000,-1.221000,-20.573000,-16.321000,30.220000
2.380,-0.869000,-0.452000,0.181000,5.321000,-20.603000,-22.115000,30.180000
2.386,-0.795000,-0.463000,0.227000,11.115000,-13.275000,-27.901000,30.270000
2.398,-0.778000,-0.410000,0.271000,12.656000,-6.725000,-26.092000,30.130000
2.404,-0.864000,-0.397000,0.310000,10.382000,-7.695000,-18.321000,30.130000
2.416,-0.974000,-0.388000,0.331000,2.863000,-17.634000,-12.359000,30.180000
2.430,-0.977000,-0.459000,0.308000,-3.618000,-30.992000,-11.901000,30.080000
2.436,-0.893000,-0.449000,0.304000,-3.183000,-36.397000,-11.527000,30.130000
2.448,-0.773000,-0.502000,0.280000,3.527000,-24.260000,-13.420000,30.130000
2.454,-0.687000,-0.479000,0.284000,10.099000,-2.710000,-19.878000,30.180000
2.466,-0.779000,-0.453000,0.286000,13.863000,14.542000,-23.496000,30.180000
2.479,-0.941000,-0.431000,0.301000,17.145000,11.702000,-27.443000,30.130000
2.486,-1.010000,-0.394000,0.335000,13.031000,-8.527000,-27.061000,30.180000
2.498,-0.943000,-0.484000,0.311000,11.863000,-32.099000,-25.641000,30.180000
2.504,-0.724000,-0.517000,0.288000,18.092000,-49.359000,-19.756000,30.180000
2.516,-0.457000,-0.515000,0.351000,23.870000,-49.328000,-6.321000,30.130000
2.530,-0.344000,-0.479000,0.393000,25.168000,-30.397000,4.626000,30.180000
2.536,-0.343000,-0.430000,0.420000,22.336000,-8.038000,15.916000,30.270000
2.549,-0.488000,-0.378000,0.429000,18.611000,7.969000,29.672000,30.220000
2.555,-0.706000,-0.354000,0.396000,9.023000,9.000000,42.000000,30.220000
2.567,-0.834000,-0.389000,0.358000,-1.504000,-4.847000,46.580000,30.180000
2.580,-0.837000,-0.422000,0.319000,-5.710000,-22.191000,46.710000,30.270000
2.587,-0.751000,-0.448000,0.303000,-0.756000,-26.756000,50.924000,30.220000
2.599,-0.639000,-0.440000,0.284000,3.305000,-14.473000,49.931000,30.130000
2.606,-0.641000,-0.411000,0.291000,7.084000,7.092000,47.756000,30.180000
2.618,-0.750000,-0.413000,0.313000,13.267000,19.916000,45.427000,30.270000
2.625,-0.824000,-0.367000,0.345000,13.359000,26.489000,44.305000,30.130000
2.637,-0.953000,-0.350000,0.370000,8.840000,20.969000,45.328000,30.180000
2.643,-1.033000,-0.315000,0.396000,1.473000,4.794000,48.489000,30.270000
2.656,-1.017000,-0.332000,0.420000,-2.305000,-15.519000,48.405000,30.180000
2.669,-0.889000,-0.274000,0.442000,-4.443000,-23.977000,48.229000,30.220000
2.675,-0.769000,-0.290000,0.440000,-4.107000,-15.664000,46.450000,30.180000
2.688,-0.711000,-0.262000,0.428000,0.237000,0.344000,44.664000,30.180000
2.696,-0.742000,-0.264000,0.441000,2.267000,16.580000,44.023000,30.220000
2.707,-0.822000,-0.277000,0.428000,0.794000,20.061000,42.603000,30.130000
2.719,-0.853000,-0.205000,0.433000,-1.664000,12.168000,45.015000,30.180000
2.726,-0.832000,-0.226000,0.425000,-11.061000,4.832000,48.344000,30.080000
2.739,-0.797000,-0.238000,0.400000,-21.183000,-1.641000,57.443000,30.130000
2.747,-0.749000,-0.289000,0.364000,-25.321000,-5.435000,63.603000,30.130000
2.758,-0.674000,-0.324000,0.303000,-23.527000,3.496000,65.450000,30.180000
2.764,-0.641000,-0.381000,0.265000,-15.145000,12.763000,64.802000,30.270000
2.777,-0.644000,-0.376000,0.235000,-1.786000,24.939000,62.725000,30.220000
2.789,-0.687000,-0.374000,0.241000,4.847000,38.389000,61.527000,30.180000
2.797,-0.782000,-0.265000,0.261000,11.031000,40.420000,67.153000,30.180000
2.809,-0.883000,-0.210000,0.256000,8.099000,36.122000,74.626000,30.180000
2.815,-0.958000,-0.208000,0.258000,3.527000,26.374000,83.718000,30.220000
2.830,-0.938000,-0.199000,0.256000,3.115000,18.267000,86.832000,30.180000
2.835,-0.880000,-0.225000,0.239000,4.321000,17.802000,82.069000,30.180000
2.848,-0.806000,-0.253000,0.235000,11.237000,22.542000,73.176000,30.130000
2.859,-0.768000,-0.184000,0.258000,21.244000,33.252000,69.061000,30.220000
2.866,-0.784000,-0.197000,0.257000,27.870000,42.939000,65.542000,30.180000
2.879,-0.792000,-0.138000,0.291000,34.389000,47.038000,61.931000,30.180000
2.886,-0.815000,-0.064000,0.324000,32.450000,49.855000,63.198000,30.130000
2.898,-0.876000,-0.022000,0.352000,24.305000,38.511000,64.832000,30.220000
2.904,-0.875000,-0.030000,0.341000,15.290000,25.000000,66.321000,30.080000
2.917,-0.804000,-0.044000,0.319000,16.282000,15.565000,71.160000,30.130000
2.929,-0.698000,0.051000,0.298000,17.947000,18.885000,80.328000,30.220000
2.936,-0.670000,0.141000,0.339000,18.969000,29.908000,94.023000,30.270000
2.948,-0.794000,0.199000,0.380000,12.588000,44.885000,101.908000,30.180000
2.955,-0.999000,0.201000,0.417000,-2.519000,45.359000,102.534000,30.270000
2.967,-1.172000,0.124000,0.427000,-14.634000,32.916000,96.206000,30.130000
2.974,-1.211000,0.043000,0.404000,-27.740000,7.443000,83.038000,30.180000
2.987,-1.064000,-0.046000,0.344000,-34.710000,-9.229000,66.595000,30.180000
2.999,-0.836000,-0.028000,0.290000,-35.145000,-5.519000,59.756000,30.220000
3.005,-0.729000,-0.060000,0.246000,-32.282000,6.389000,62.710000,30.130000
3.018,-0.721000,-0.050000,0.224000,-22.718000,20.542000,71.557000,30.180000
3.025,-0.742000,0.069000,0.250000,-16.137000,31.496000,82.183000,30.220000
3.037,-0.827000,0.100000,0.267000,-20.588000,36.664000,88.618000,30.130000
3.049,-0.893000,0.138000,0.257000,-28.206000,36.145000,92.916000,30.180000
3.056,-0.957000,0.130000,0.228000,-38.649000,29.420000,97.588000,30.180000
3.069,-0.989000,0.051000,0.163000,-47.008000,15.679000,98.573000,30.220000
3.075,-0.909000,-0.038000,0.075000,-43.153000,12.679000,93.969000,30.220000
3.088,-0.801000,-0.002000,0.025000,-25.947000,21.313000,97.824000,30.180000
3.100,-0.796000,-0.009000,0.016000,-2.649000,34.802000,100.427000,30.180000
3.107,-0.805000,0.140000,0.077000,9.473000,53.756000,99.237000,30.180000
3.119,-0.922000,0.253000,0.171000,12.763000,67.290000,96.756000,30.220000
3.126,-1.096000,0.347000,0.213000,7.695000,69.481000,97.802000,30.180000
3.139,-1.180000,0.346000,0.195000,2.870000,50.931000,98.046000,30.270000
3.146,-1.223000,0.274000,0.148000,-11.450000,31.374000,98.130000,30.130000
3.157,-1.139000,0.149000,0.061000,-16.893000,16.252000,100.298000,30.080000
3.163,-0.990000,0.142000,-0.049000,-17.176000,10.458000,103.885000,30.180000
3.177,-0.886000,0.177000,-0.053000,-9.992000,20.786000,108.885000,30.130000
3.189,-0.879000,0.200000,-0.060000,2.916000,38.435000,103.626000,30.220000
3.196,-0.984000,0.325000,-0.049000,16.344000,52.908000,96.870000,30.180000
3.208,-1.161000,0.404000,0.025000,22.985000,57.985000,86.802000,30.180000
3.215,-1.332000,0.437000,0.078000,20.176000,43.603000,71.168000,30.130000
3.227,-1.402000,0.421000,0.100000,15.725000,18.802000,52.008000,30.220000
3.235,-1.311000,0.400000,0.095000,6.725000,-9.221000,32.725000,30.080000
3.248,-1.074000,0.285000,0.067000,2.939000,-23.115000,19.427000,30.180000
3.259,-0.749000,0.312000,0.038000,5.191000,-21.221000,19.565000,30.180000
3.266,-0.562000,0.313000,0.048000,15.168000,-4.550000,32.031000,30.130000
3.279,-0.540000,0.364000,0.077000,23.267000,19.069000,41.282000,30.180000
3.286,-0.679000,0.447000,0.140000,23.702000,33.313000,51.366000,30.220000
3.298,-0.837000,0.471000,0.193000,21.298000,38.885000,53.160000,30.220000
3.304,-0.965000,0.510000,0.244000,10.458000,29.687000,52.817000,30.180000
3.317,-1.055000,0.456000,0.240000,-5.702000,8.786000,47.687000,30.180000
3.330,-0.904000,0.400000,0.146000,-13.099000,1.504000,38.267000,30.220000
3.337,-0.740000,0.411000,0.081000,-10.802000,6.878000,37.908000,30.320000
3.349,-0.675000,0.365000,0.015000,-1.130000,25.679000,38.260000,30.180000
3.356,-0.759000,0.403000,-0.002000,11.244000,38.176000,37.397000,30.270000
3.368,-0.876000,0.418000,0.011000,24.527000,42.565000,33.885000,30.220000
3.375,-0.978000,0.418000,0.054000,25.031000,43.450000,25.145000,30.220000
3.388,-1.001000,0.397000,0.113000,19.534000,36.183000,12.038000,30.180000
3.395,-0.906000,0.336000,0.126000,10.931000,29.672000,1.550000,30.180000
3.407,-0.663000,0.324000,0.095000,4.702000,32.809000,-1.206000,30.220000
3.419,-0.503000,0.385000,0.063000,0.183000,41.466000,12.794000,30.270000
3.427,-0.455000,0.378000,0.024000,0.328000,49.733000,38.305000,30.180000
3.439,-0.476000,0.465000,0.013000,1.466000,55.702000,68.588000,30.130000
3.446,-0.615000,0.528000,0.060000,-8.359000,56.878000,92.221000,30.130000
3.458,-0.813000,0.525000,0.082000,-23.000000,45.977000,105.794000,30.180000
3.465,-0.939000,0.476000,0.072000,-38.756000,25.466000,105.313000,30.180000
3.477,-0.910000,0.502000,0.062000,-49.641000,7.244000,103.115000,30.220000
3.489,-0.761000,0.445000,-0.022000,-51.214000,2.229000,99.046000,30.130000
3.497,-0.560000,0.526000,-0.077000,-37.992000,21.954000,99.115000,30.180000
3.508,-0.558000,0.632000,-0.102000,-27.351000,40.344000,101.824000,30.130000
3.515,-0.693000,0.610000,-0.124000,-7.588000,59.244000,103.244000,30.220000
3.530,-0.801000,0.668000,-0.073000,4.893000,69.496000,93.626000,30.180000
3.536,-0.909000,0.761000,0.004000,5.603000,64.863000,89.336000,30.180000
3.547,-1.061000,0.771000,0.067000,-6.618000,44.550000,84.260000,30.180000
3.559,-1.120000,0.808000,0.130000,-22.061000,11.275000,77.695000,30.130000
3.566,-0.947000,0.762000,0.084000,-38.771000,-14.908000,76.382000,30.270000
3.580,-0.646000,0.834000,-0.000000,-40.565000,-11.130000,80.840000,30.180000
3.586,-0.509000,0.800000,-0.062000,-26.359000,9.458000,87.466000,30.130000
3.597,-0.591000,0.756000,-0.097000,-8.947000,32.427000,92.130000,30.130000
3.609,-0.773000,0.776000,-0.076000,-1.176000,46.740000,84.214000,30.180000
3.616,-0.869000,0.818000,-0.010000,1.885000,51.748000,67.924000,30.180000
3.630,-0.938000,0.877000,0.057000,-8.260000,37.924000,60.649000,30.220000
3.636,-1.007000,0.932000,0.105000,-28.672000,14.656000,56.359000,30.080000
3.648,-0.941000,0.888000,0.084000,-53.466000,-10.351000,54.397000,30.180000
3.655,-0.798000,0.822000,-0.007000,-69.206000,-24.084000,55.969000,30.130000
3.667,-0.609000,0.748000,-0.102000,-68.290000,-22.260000,61.092000,30.220000
3.680,-0.498000,0.702000,-0.162000,-53.618000,-12.931000,72.359000,30.180000
3.687,-0.471000,0.748000,-0.160000,-38.198000,5.427000,78.817000,30.080000
3.698,-0.581000,0.795000,-0.114000,-27.733000,21.496000,79.885000,30.220000
3.707,-0.732000,0.815000,-0.032000,-24.527000,24.618000,76.427000,30.130000
3.717,-0.867000,0.838000,0.050000,-31.031000,10.336000,69.389000,30.270000
3.730,-0.871000,0.807000,0.070000,-43.290000,-6.641000,62.137000,30.220000
3.737,-0.741000,0.819000,0.041000,-49.527000,-16.504000,59.252000,30.130000
3.748,-0.673000,0.789000,-0.009000,-44.038000,-24.290000,63.290000,30.180000
3.756,-0.641000,0.701000,-0.056000,-33.160000,-21.733000,62.740000,30.180000
3.767,-0.629000,0.685000,-0.079000,-17.565000,-18.412000,59.015000,30.130000
3.780,-0.660000,0.641000,-0.060000,-3.229000,-17.824000,49.809000,30.220000
3.787,-0.662000,0.662000,-0.001000,5.031000,-21.603000,40.588000,30.180000
3.798,-0.602000,0.720000,0.074000,6.313000,-25.084000,37.832000,30.270000
3.807,-0.569000,0.770000,0.157000,0.038000,-31.473000,42.015000,30.220000
3.817,-0.519000,0.799000,0.168000,-9.046000,-36.427000,44.389000,30.180000
3.824,-0.502000,0.780000,0.165000,-15.733000,-42.244000,49.466000,30.180000
3.837,-0.384000,0.754000,0.113000,-15.901000,-33.931000,52.748000,30.270000
3.849,-0.269000,0.767000,0.083000,-7.267000,-16.214000,51.275000,30.130000
3.856,-0.271000,0.740000,0.055000,3.115000,3.847000,50.679000,30.080000
3.868,-0.356000,0.746000,0.066000,10.534000,16.641000,48.550000,30.180000
3.875,-0.384000,0.827000,0.093000,12.634000,24.267000,47.374000,30.130000
3.888,-0.410000,0.859000,0.141000,7.038000,25.534000,48.885000,30.220000
3.896,-0.469000,0.862000,0.157000,-4.641000,20.176000,47.603000,30.270000
3.907,-0.471000,0.798000,0.143000,-15.863000,8.969000,44.603000,30.220000
3.919,-0.287000,0.844000,0.117000,-20.870000,14.282000,45.076000,30.130000
3.926,-0.213000,0.872000,0.105000,-15.336000,23.191000,58.397000,30.180000
3.939,-0.129000,0.880000,0.055000,-4.977000,44.053000,62.046000,30.180000
3.946,-0.168000,0.927000,0.027000,9.252000,66.160000,63.397000,30.220000
3.958,-0.303000,0.955000,-0.002000,19.573000,68.618000,70.809000,30.130000
3.965,-0.497000,1.028000,0.038000,25.504000,57.855000,84.573000,30.180000
3.977,-0.681000,1.109000,0.117000,14.427000,26.931000,94.351000,30.080000
3.989,-0.785000,1.101000,0.180000,-8.817000,-16.588000,90.504000,30.130000
3.996,-0.766000,1.010000,0.164000,-37.206000,-50.618000,79.252000,30.220000
4.008,-0.539000,0.935000,0.077000,-47.847000,-73.122000,71.527000,30.180000
4.015,-0.169000,1.016000,0.065000,-38.595000,-56.992000,73.069000,30.130000
4.030,-0.063000,1.041000,0.043000,-25.321000,-24.809000,77.344000,30.130000
4.035,-0.146000,1.023000,0.014000,-7.878000,1.198000,78.481000,30.180000
4.047,-0.338000,1.013000,0.044000,-1.405000,14.214000,78.771000,30.180000
4.059,-0.489000,0.976000,0.060000,5.588000,12.359000,75.481000,30.130000
4.066,-0.523000,0.990000,0.138000,4.954000,0.947000,71.359000,30.130000
4.080,-0.471000,1.044000,0.178000,-0.084000,-11.344000,68.893000,30.180000
4.086,-0.386000,1.078000,0.135000,-8.962000,-9.992000,67.252000,30.180000
4.099,-0.321000,1.074000,0.077000,-5.130000,1.962000,64.038000,30.130000
4.105,-0.301000,1.038000,-0.004000,2.847000,17.924000,56.962000,30.180000
4.117,-0.401000,1.004000,-0.023000,13.473000,24.634000,47.931000,30.180000
4.124,-0.464000,1.024000,0.017000,22.214000,21.832000,43.557000,30.180000
4.138,-0.502000,1.062000,0.089000,22.260000,12.817000,38.832000,30.220000
4.149,-0.509000,1.058000,0.139000,16.298000,-2.824000,33.847000,30.180000
4.156,-0.479000,1.071000,0.177000,2.290000,-15.595000,31.550000,30.180000
4.168,-0.421000,1.008000,0.222000,-8.817000,-25.840000,26.420000,30.220000
4.175,-0.366000,0.944000,0.193000,-19.672000,-37.695000,20.473000,30.220000
4.188,-0.290000,0.898000,0.139000,-24.153000,-43.107000,16.786000,30.270000
4.200,-0.164000,0.903000,0.115000,-20.992000,-36.550000,18.130000,30.180000
4.206,-0.050000,0.907000,0.130000,-11.344000,-22.962000,21.420000,30.220000
4.219,0.018000,0.960000,0.142000,-3.145000,-2.168000,24.542000,30.270000
4.226,-0.052000,1.002000,0.151000,0.924000,15.053000,31.107000,30.180000
4.238,-0.184000,0.988000,0.129000,3.527000,22.137000,35.672000,30.130000
4.245,-0.282000,0.990000,0.147000,2.550000,18.344000,37.122000,30.130000
4.258,-0.369000,1.005000,0.135000,-5.534000,0.618000,37.893000,30.180000
4.264,-0.377000,0.970000,0.129000,-13.229000,-15.466000,35.527000,30.080000
4.277,-0.328000,0.948000,0.115000,-19.389000,-30.191000,30.336000,30.220000
4.289,-0.179000,0.942000,0.094000,-19.122000,-35.786000,22.015000,30.220000
4.296,0.010000,1.020000,0.086000,-12.443000,-21.153000,22.870000,30.180000
4.308,0.073000,1.115000,0.093000,-3.878000,0.137000,32.725000,30.220000
4.315,0.023000,1.161000,0.088000,2.603000,20.748000,43.176000,30.220000
4.330,-0.127000,1.155000,0.110000,6.389000,27.672000,52.664000,30.180000
4.336,-0.317000,1.154000,0.094000,6.687000,21.313000,58.618000,30.270000
4.349,-0.407000,1.127000,0.101000,2.328000,6.336000,58.023000,30.040000
4.355,-0.424000,1.077000,0.094000,-2.664000,-11.061000,49.176000,30.130000
4.367,-0.388000,1.048000,0.095000,-6.870000,-26.489000,37.618000,30.180000
4.380,-0.343000,1.005000,0.103000,-9.954000,-39.153000,24.809000,30.270000
4.387,-0.224000,0.986000,0.093000,-10.870000,-44.672000,14.046000,30.130000
4.399,-0.095000,1.002000,0.082000,-12.702000,-39.069000,13.863000,30.180000
4.405,0.010000,1.043000,0.082000,-4.122000,-31.595000,20.046000,30.080000
4.417,0.053000,1.088000,0.109000,-0.580000,-15.656000,30.649000,30.270000
4.424,0.005000,1.086000,0.112000,1.298000,-3.969000,42.366000,30.220000
4.438,-0.092000,1.087000,0.110000,3.000000,0.977000,52.115000,30.180000
4.450,-0.201000,1.056000,0.107000,-0.160000,-0.023000,57.023000,30.270000
4.456,-0.240000,1.017000,0.091000,0.053000,-2.985000,53.122000,30.130000
4.469,-0.238000,0.995000,0.101000,2.298000,-5.160000,42.954000,30.130000
4.476,-0.217000,0.972000,0.104000,3.634000,-5.504000,28.557000,30.180000
4.490,-0.180000,0.970000,0.119000,2.076000,-4.740000,15.160000,30.180000
4.495,-0.166000,0.953000,0.128000,0.534000,-9.908000,6.794000,30.220000
4.508,-0.139000,0.956000,0.131000,-1.191000,-17.473000,3.076000,30.180000
4.515,-0.057000,0.984000,0.127000,-5.427000,-26.000000,7.878000,30.270000
4.527,0.011000,0.987000,0.142000,-11.519000,-29.794000,15.870000,30.320000
4.539,0.072000,0.977000,0.146000,-11.809000,-28.130000,20.137000,30.220000
4.547,0.095000,0.961000,0.151000,-12.870000,-24.618000,27.718000,30.080000
4.558,0.091000,0.952000,0.149000,-11.107000,-22.061000,31.954000,30.180000
4.565,0.088000,0.954000,0.151000,-10.191000,-17.015000,36.573000,30.220000
4.580,0.061000,0.978000,0.142000,-8.229000,-13.779000,39.076000,30.220000
4.585,0.046000,0.993000,0.137000,-5.023000,-9.611000,41.107000,30.180000
4.597,0.026000,0.976000,0.126000,-2.450000,-6.496000,43.053000,30.220000
4.605,0.023000,0.976000,0.115000,1.672000,-0.595000,41.290000,30.220000
4.617,0.026000,0.995000,0.139000,6.863000,8.557000,37.702000,30.180000
4.630,-0.032000,1.029000,0.105000,9.779000,13.008000,35.321000,30.270000
4.637,-0.032000,1.039000,0.092000,17.679000,18.168000,32.710000,30.220000
4.649,-0.023000,1.132000,0.111000,14.366000,24.290000,33.626000,30.220000
4.656,-0.076000,1.158000,0.114000,10.076000,28.550000,29.954000,30.180000
4.668,-0.108000,1.133000,0.102000,5.214000,27.542000,25.695000,30.270000
4.675,-0.130000,1.110000,0.114000,0.229000,22.458000,22.618000,30.220000
4.688,-0.130000,1.085000,0.125000,-4.206000,13.244000,20.679000,30.180000
4.695,-0.104000,1.072000,0.144000,-8.382000,7.260000,15.443000,30.180000
4.707,-0.058000,1.054000,0.169000,-16.985000,5.031000,9.038000,30.270000
4.719,-0.065000,1.015000,0.145000,-19.206000,-4.939000,5.397000,30.220000
4.726,-0.038000,1.006000,0.156000,-20.626000,-14.832000,2.725000,30.270000
4.739,0.002000,1.004000,0.155000,-23.191000,-23.008000,0.977000,30.180000
4.746,0.024000,0.974000,0.162000,-20.092000,-32.229000,1.214000,30.220000
4.758,0.074000,0.961000,0.151000,-14.672000,-34.336000,1.366000,30.220000
4.765,0.103000,0.956000,0.142000,-12.351000,-30.634000,-0.214000,30.180000
4.777,0.124000,0.932000,0.140000,-6.977000,-30.214000,1.137000,30.220000
4.783,0.140000,0.978000,0.169000,-0.863000,-28.443000,5.947000,30.220000
4.797,0.121000,1.000000,0.169000,0.382000,-27.802000,14.015000,30.180000
4.809,0.106000,1.012000,0.181000,4.412000,-28.015000,24.328000,30.180000
4.816,0.068000,0.986000,0.174000,11.130000,-29.053000,36.992000,30.220000
4.829,0.054000,0.990000,0.182000,15.947000,-25.634000,43.763000,30.130000
4.836,0.003000,0.996000,0.194000,16.076000,-17.321000,40.580000,30.180000
4.848,-0.050000,0.979000,0.185000,13.573000,-11.954000,32.756000,30.180000
4.855,-0.073000,1.022000,0.202000,7.779000,-6.824000,22.412000,30.220000
4.867,-0.108000,1.040000,0.220000,1.519000,-5.008000,10.244000,30.180000
4.880,-0.088000,1.058000,0.198000,-3.046000,-6.282000,-0.252000,30.270000
4.887,-0.054000,1.069000,0.216000,-7.221000,-6.855000,-6.389000,30.220000
4.901,-0.033000,1.072000,0.199000,-10.626000,-7.092000,-9.855000,30.220000
4.907,0.008000,1.068000,0.189000,-12.168000,-1.198000,-11.977000,30.180000
4.918,0.025000,1.033000,0.186000,-13.183000,-2.115000,-12.550000,30.180000
4.925,0.023000,1.004000,0.183000,-11.336000,0.015000,-11.893000,30.220000
4.937,0.012000,0.996000,0.165000,-11.489000,4.962000,-12.847000,30.080000
4.944,0.015000,0.996000,0.153000,-11.489000,8.137000,-13.405000,30.180000
4.957,0.021000,1.000000,0.138000,-10.466000,9.511000,-13.015000,30.130000
4.969,0.015000,0.994000,0.135000,-9.481000,10.542000,-11.435000,30.220000
4.976,-0.007000,1.014000,0.120000,-10.122000,9.931000,-9.771000,30.270000
4.989,-0.006000,0.980000,0.128000,-9.573000,9.550000,-9.237000,30.180000
4.996,0.037000,0.980000,0.146000,-7.084000,14.504000,-11.282000,30.180000
5.008,0.029000,0.976000,0.143000,-6.015000,17.252000,-12.573000,30.320000
5.014,0.005000,0.989000,0.145000,-5.901000,19.557000,-12.672000,30.270000
5.027,0.000000,1.002000,0.144000,-6.137000,20.366000,-13.267000,30.180000
5.039,-0.014000,1.001000,0.131000,-7.954000,19.718000,-12.450000,30.220000
5.046,-0.040000,0.988000,0.127000,-6.573000,15.679000,-10.893000,30.180000
5.058,-0.062000,0.975000,0.128000,-5.626000,10.466000,-11.084000,30.270000
5.065,-0.075000,0.974000,0.135000,-6.046000,4.275000,-12.855000,30.130000
5.079,-0.065000,0.967000,0.157000,-5.863000,-2.237000,-14.130000,30.130000
5.089,-0.036000,0.969000,0.157000,-5.481000,-6.443000,-16.557000,30.270000
5.098,-0.016000,0.981000,0.170000,-6.504000,-8.962000,-17.840000,30.180000
5.109,0.017000,0.986000,0.165000,-7.847000,-9.611000,-18.046000,30.220000
5.116,0.065000,0.993000,0.179000,-9.046000,-7.878000,-17.511000,30.220000
5.130,0.061000,0.989000,0.177000,-9.916000,-4.901000,-16.130000,30.270000
5.137,0.064000,0.978000,0.174000,-9.885000,-3.443000,-13.153000,30.180000
5.148,0.076000,0.963000,0.171000,-11.107000,0.206000,-12.771000,30.130000
5.155,0.093000,0.960000,0.150000,-10.870000,3.237000,-11.015000,30.220000
5.167,0.080000,0.946000,0.155000,-8.420000,5.534000,-8.115000,30.180000
5.174,0.050000,0.944000,0.143000,-7.351000,5.847000,-5.183000,30.130000
5.188,0.018000,0.943000,0.148000,-7.206000,2.366000,-1.855000,30.220000
5.200,0.015000,0.928000,0.146000,-5.725000,-0.115000,0.008000,30.180000
5.207,0.031000,0.948000,0.172000,-5.183000,-0.435000,1.939000,30.180000
5.219,0.062000,0.962000,0.184000,-6.947000,5.137000,1.664000,30.320000
5.226,0.053000,0.956000,0.190000,-7.672000,11.176000,-0.863000,30.220000
5.240,0.024000,0.959000,0.188000,-10.122000,15.779000,-1.611000,30.180000
5.246,0.002000,0.947000,0.164000,-12.290000,15.344000,-4.321000,30.180000
5.258,-0.003000,0.949000,0.152000,-11.939000,9.893000,-3.534000,30.220000
5.265,-0.001000,0.928000,0.130000,-10.473000,5.695000,-2.534000,30.130000
5.277,-0.011000,0.919000,0.119000,-8.092000,-0.481000,-0.366000,30.180000
5.286,0.008000,0.905000,0.122000,-3.634000,-3.924000,1.443000,30.180000
5.297,0.069000,0.940000,0.146000,-0.031000,-0.687000,1.137000,30.220000
5.305,0.069000,0.962000,0.171000,1.786000,4.794000,0.588000,30.270000
5.317,0.038000,0.979000,0.172000,1.527000,8.061000,1.221000,30.270000
5.323,0.000000,0.983000,0.173000,-0.198000,9.328000,1.649000,30.130000
5.337,-0.025000,0.999000,0.165000,-2.137000,6.382000,2.206000,30.220000
5.350,-0.039000,0.979000,0.153000,-1.748000,1.832000,2.145000,30.180000
5.356,-0.028000,0.966000,0.146000,0.962000,-1.489000,1.588000,30.180000
5.369,-0.002000,0.961000,0.160000,4.618000,-0.405000,-1.237000,30.130000
5.377,0.024000,0.987000,0.196000,5.893000,2.321000,-2.786000,30.220000
5.389,0.039000,1.001000,0.229000,5.328000,6.695000,-4.618000,30.180000
5.396,0.028000,0.995000,0.248000,6.832000,8.855000,-4.260000,30.180000
5.408,0.018000,1.027000,0.245000,2.031000,8.947000,-3.237000,30.220000
5.416,0.002000,1.020000,0.244000,-1.053000,7.412000,-2.679000,30.180000
5.430,-0.015000,1.000000,0.232000,-3.214000,5.099000,-2.076000,30.180000
5.437,-0.016000,0.978000,0.218000,-3.351000,3.511000,-2.725000,30.270000
5.448,-0.002000,0.952000,0.210000,-2.748000,3.435000,-5.031000,30.220000
5.455,0.017000,0.955000,0.207000,-1.855000,6.053000,-7.763000,30.080000
5.467,0.035000,0.961000,0.210000,-0.702000,8.031000,-9.275000,30.180000
5.474,0.017000,0.970000,0.213000,-1.351000,6.763000,-7.725000,30.220000
5.488,0.018000,0.965000,0.207000,-2.710000,4.573000,-5.565000,30.220000
5.500,0.012000,0.958000,0.197000,-4.214000,0.840000,-0.962000,30.180000
5.507,0.011000,0.950000,0.193000,-4.740000,-2.618000,3.649000,30.180000
5.519,0.016000,0.931000,0.195000,-4.702000,-2.901000,5.672000,30.220000
5.526,0.013000,0.927000,0.191000,-4.992000,-1.527000,6.130000,30.130000
5.540,0.000000,0.923000,0.181000,-5.244000,-0.237000,6.229000,30.180000
5.546,-0.008000,0.927000,0.178000,-3.511000,-0.939000,6.344000,30.130000
5.558,-0.005000,0.942000,0.182000,-2.206000,-2.603000,6.870000,30.130000
5.565,0.004000,0.969000,0.185000,-2.771000,-3.107000,8.443000,30.180000
5.579,0.021000,0.986000,0.192000,-4.267000,-2.519000,11.557000,30.180000
5.586,0.008000,0.986000,0.179000,-5.763000,0.206000,12.885000,30.180000
5.598,0.007000,0.989000,0.171000,-6.588000,4.473000,12.504000,30.130000
5.605,-0.030000,0.988000,0.143000,-8.130000,5.046000,11.641000,30.180000
5.617,-0.055000,0.972000,0.122000,-7.237000,5.695000,9.237000,30.180000
5.623,-0.068000,0.951000,0.109000,-5.099000,2.389000,7.031000,30.220000
5.637,-0.071000,0.939000,0.104000,-2.534000,-0.328000,4.053000,30.130000
5.649,-0.070000,0.923000,0.108000,0.206000,-4.679000,1.611000,30.270000
5.657,-0.041000,0.932000,0.113000,2.649000,-7.847000,0.916000,30.270000
5.669,-0.028000,0.944000,0.142000,4.527000,-9.802000,1.183000,30.220000
5.676,-0.011000,0.956000,0.168000,5.137000,-10.656000,1.962000,30.180000
5.689,0.000000,0.968000,0.192000,4.328000,-9.679000,2.939000,30.180000
5.696,0.026000,0.978000,0.193000,3.061000,-7.076000,2.313000,30.220000
5.708,0.031000,0.980000,0.200000,2.802000,-3.237000,2.679000,30.130000
5.716,0.036000,0.979000,0.205000,2.298000,2.702000,2.641000,30.180000
5.730,0.008000,0.979000,0.184000,2.099000,4.412000,3.466000,30.180000
5.737,-0.030000,0.972000,0.185000,2.756000,3.901000,4.153000,30.180000
5.749,-0.047000,0.976000,0.180000,3.427000,1.840000,3.695000,30.130000
5.756,-0.041000,0.973000,0.197000,4.985000,-0.656000,2.282000,30.270000
5.768,-0.016000,0.982000,0.205000,7.023000,-0.252000,-0.115000,30.180000
5.775,-0.018000,0.995000,0.225000,7.260000,0.588000,-2.000000,30.130000
5.788,-0.019000,0.997000,0.246000,6.580000,-0.313000,-2.771000,30.180000
5.796,-0.006000,0.999000,0.260000,4.947000,-1.710000,-3.069000,30.270000
5.807,0.000000,1.005000,0.269000,3.275000,-3.786000,-3.260000,30.220000
5.819,-0.012000,0.992000,0.262000,1.351000,-7.229000,-2.321000,30.130000
5.826,-0.011000,0.971000,0.248000,0.366000,-9.664000,-1.992000,30.180000
5.840,0.024000,0.965000,0.244000,0.756000,-8.458000,-3.481000,30.180000
5.846,0.061000,0.975000,0.247000,1.473000,-5.435000,-3.489000,30.220000
5.858,0.057000,0.982000,0.250000,-0.198000,-1.336000,-2.298000,30.220000
5.866,0.031000,0.968000,0.258000,-1.679000,0.870000,-1.397000,30.180000
5.880,0.023000,0.973000,0.247000,-2.817000,0.130000,0.595000,30.270000
5.887,0.000000,0.965000,0.239000,-4.000000,-2.710000,2.863000,30.220000
5.898,-0.003000,0.963000,0.229000,-5.069000,-5.191000,4.382000,30.220000
5.905,-0.005000,0.967000,0.231000,-4.878000,-6.130000,4.115000,30.180000
5.917,-0.009000,0.970000,0.232000,-4.420000,-7.015000,3.794000,30.220000
5.924,-0.001000,0.977000,0.223000,-4.710000,-5.687000,2.557000,30.220000
5.937,0.010000,0.981000,0.206000,-4.817000,-2.924000,1.267000,30.370000
5.950,-0.010000,0.987000,0.196000,-4.214000,-1.672000,1.260000,30.180000
5.958,-0.030000,0.969000,0.175000,-3.496000,-2.824000,2.023000,30.220000
5.969,-0.027000,0.968000,0.184000,-2.687000,-2.779000,1.519000,30.220000
5.976,-0.003000,0.980000,0.178000,-3.115000,-1.718000,1.863000,30.080000
5.989,-0.016000,0.976000,0.188000,-2.893000,-1.015000,2.015000,30.270000
5.996,-0.014000,0.981000,0.181000,-2.931000,0.809000,1.092000,30.320000
6.008,-0.028000,0.983000,0.178000,-3.023000,0.985000,-0.092000,30.320000
6.015,-0.044000,0.978000,0.192000,-3.206000,-0.802000,-0.107000,30.180000
6.027,-0.038000,0.972000,0.181000,-3.496000,-2.191000,-0.985000,30.180000
6.035,-0.006000,0.979000,0.186000,-2.748000,-1.588000,-1.977000,30.220000
6.048,-0.001000,0.970000,0.182000,-1.756000,-0.809000,-1.710000,30.180000
6.059,-0.018000,0.969000,0.191000,-1.725000,-0.939000,-1.313000,30.270000
6.066,-0.006000,0.977000,0.183000,-1.405000,-0.511000,-2.206000,30.220000
6.080,-0.017000,0.967000,0.191000,-1.626000,-1.382000,-2.168000,30.320000
6.086,-0.017000,0.959000,0.177000,-1.649000,-2.099000,-2.198000,30.180000
6.099,-0.023000,0.960000,0.177000,-1.527000,-2.802000,-2.802000,30.180000
6.106,-0.015000,0.954000,0.178000,-0.817000,-3.939000,-3.427000,30.130000
6.117,-0.003000,0.959000,0.178000,-0.198000,-4.718000,-3.649000,30.220000
6.130,0.013000,0.960000,0.191000,-0.198000,-4.756000,-2.985000,30.180000
6.137,0.015000,0.957000,0.200000,-0.458000,-3.847000,-1.450000,30.320000
6.149,0.007000,0.964000,0.201000,-0.359000,-2.870000,-0.374000,30.220000
6.156,0.021000,0.972000,0.217000,-0.511000,-0.870000,-0.267000,30.270000
6.168,0.011000,0.969000,0.207000,-1.008000,0.580000,-0.038000,30.180000
6.176,0.007000,0.967000,0.215000,-2.153000,2.023000,-0.885000,30.180000
6.188,-0.000000,0.968000,0.198000,-2.603000,2.435000,-0.168000,30.220000
6.195,-0.000000,0.961000,0.191000,-1.466000,1.366000,0.786000,30.180000
6.208,-0.009000,0.969000,0.179000,0.214000,-0.626000,1.290000,30.180000
6.215,-0.025000,0.966000,0.185000,1.137000,-3.168000,1.664000,30.220000
6.227,-0.028000,0.960000,0.197000,1.611000,-5.305000,1.176000,30.180000
6.235,-0.017000,0.970000,0.209000,2.023000,-5.679000,0.031000,30.180000
6.248,0.015000,0.972000,0.223000,1.183000,-3.511000,-1.588000,30.130000
6.259,0.016000,0.976000,0.224000,-0.115000,-0.481000,-2.771000,30.130000
6.267,0.010000,0.963000,0.212000,-0.664000,1.786000,-2.336000,30.270000
6.280,-0.002000,0.966000,0.205000,-0.504000,2.450000,-0.557000,30.270000
6.286,-0.010000,0.958000,0.199000,0.412000,0.031000,0.901000,30.130000
6.299,-0.024000,0.963000,0.194000,1.038000,-2.901000,1.718000,30.220000
6.306,-0.026000,0.958000,0.194000,1.405000,-4.382000,1.718000,30.180000
6.318,-0.027000,0.960000,0.202000,2.038000,-5.481000,0.992000,30.180000
6.325,-0.006000,0.966000,0.215000,2.466000,-3.878000,-0.931000,30.220000
6.338,0.001000,0.969000,0.224000,1.382000,-1.977000,-2.595000,30.220000
6.346,0.011000,0.970000,0.230000,0.489000,-0.870000,-2.351000,30.180000
6.358,0.018000,0.961000,0.231000,-0.229000,0.832000,-0.809000,30.130000
6.365,0.025000,0.972000,0.224000,-0.427000,2.496000,1.672000,30.220000
6.377,0.010000,0.976000,0.223000,-1.046000,3.397000,4.046000,30.180000
6.385,-0.014000,0.964000,0.216000,-0.947000,2.947000,5.557000,30.180000
6.398,-0.027000,0.975000,0.220000,-0.489000,2.641000,4.794000,30.130000
6.406,-0.029000,0.972000,0.219000,-0.847000,2.153000,3.092000,30.320000
6.417,-0.028000,0.979000,0.209000,-1.008000,2.260000,1.649000,30.180000
6.430,-0.039000,0.974000,0.208000,-1.229000,2.802000,0.084000,30.270000
6.437,-0.044000,0.976000,0.218000,-1.573000,1.786000,-0.725000,30.130000
6.449,-0.052000,0.979000,0.208000,-1.672000,-0.931000,-1.489000,30.130000
6.456,-0.061000,0.977000,0.206000,-1.466000,-5.160000,-1.145000,30.180000
6.468,-0.039000,0.977000,0.210000,-0.809000,-8.305000,-1.802000,30.180000
6.475,0.006000,0.991000,0.225000,-2.214000,-7.344000,-3.305000,30.220000
6.488,0.029000,0.989000,0.230000,-3.794000,-3.008000,-3.855000,30.180000
6.495,0.019000,0.964000,0.215000,-4.198000,0.565000,-3.542000,30.080000
6.507,0.005000,0.961000,0.202000,-3.405000,2.229000,-3.420000,30.220000
6.514,-0.010000,0.954000,0.192000,-1.870000,0.504000,-3.038000,30.220000
6.527,-0.018000,0.946000,0.188000,-1.023000,-3.252000,-2.740000,30.270000
6.539,-0.016000,0.961000,0.188000,-0.985000,-6.511000,-2.565000,30.180000
6.546,0.020000,0.967000,0.217000,-0.992000,-6.573000,-3.565000,30.130000
6.558,0.047000,0.975000,0.221000,-2.221000,-4.122000,-2.977000,30.220000
6.566,0.039000,0.972000,0.213000,-2.969000,-1.450000,-1.038000,30.180000
6.579,0.026000,0.971000,0.199000,-3.160000,0.069000,0.588000,30.220000
6.586,0.018000,0.972000,0.184000,-3.214000,0.473000,1.221000,30.220000
6.600,0.004000,0.949000,0.177000,-2.458000,-0.214000,1.496000,30.080000
6.605,-0.012000,0.944000,0.180000,-0.687000,-1.244000,1.931000,30.270000
6.617,-0.013000,0.946000,0.194000,0.756000,-2.924000,1.214000,30.180000
6.625,0.006000,0.960000,0.212000,1.366000,-2.366000,0.038000,30.220000
6.638,0.022000,0.965000,0.225000,0.733000,-0.679000,-0.229000,30.180000
6.646,0.024000,0.975000,0.219000,-0.618000,0.359000,1.374000,30.180000
6.657,0.010000,0.966000,0.204000,-1.618000,1.534000,2.786000,30.220000
6.663,-0.002000,0.963000,0.208000,-1.588000,0.687000,3.893000,30.130000
6.677,-0.019000,0.959000,0.196000,-0.282000,-1.237000,4.702000,30.180000
6.690,-0.034000,0.955000,0.193000,0.557000,-3.802000,4.160000,30.220000
6.696,-0.027000,0.964000,0.221000,0.115000,-4.595000,2.527000,30.220000
6.709,-0.012000,0.964000,0.215000,0.252000,-4.641000,1.366000,30.180000
6.716,0.026000,0.969000,0.220000,0.702000,-0.626000,-0.252000,30.180000
6.730,0.039000,0.979000,0.220000,0.550000,3.519000,-0.061000,30.220000
6.736,0.027000,0.971000,0.211000,0.466000,6.496000,1.977000,30.220000
6.749,0.004000,0.971000,0.211000,0.649000,6.817000,4.198000,30.180000
6.756,-0.026000,0.967000,0.193000,0.473000,4.939000,5.344000,30.270000
6.768,-0.040000,0.960000,0.202000,0.885000,1.672000,5.084000,30.220000
6.776,-0.033000,0.968000,0.208000,0.344000,0.855000,3.115000,30.130000
6.789,-0.024000,0.971000,0.207000,-0.092000,0.450000,2.137000,30.180000
6.796,-0.026000,0.963000,0.215000,0.122000,-0.076000,2.191000,30.220000
6.808,-0.018000,0.963000,0.211000,-0.244000,0.069000,2.206000,30.220000
6.815,-0.022000,0.965000,0.211000,-0.420000,-1.076000,2.847000,30.180000
6.827,-0.036000,0.962000,0.203000,0.252000,-2.618000,3.328000,30.370000
6.836,-0.029000,0.952000,0.205000,0.565000,-3.817000,2.580000,30.130000
6.847,-0.027000,0.968000,0.215000,0.397000,-3.618000,1.519000,30.130000
6.854,-0.016000,0.964000,0.216000,0.611000,-3.145000,0.252000,30.270000
