time_sec,ax,ay,az,gx,gy,gz,temp_c
0.003,-0.183000,0.938000,0.512000,25.954000,61.214000,74.046000,28.150000
0.015,-0.170000,0.954000,0.519000,17.298000,71.779000,73.344000,28.290000
0.022,-0.196000,0.996000,0.536000,10.282000,79.855000,75.817000,28.200000
0.034,-0.240000,0.990000,0.513000,5.557000,67.443000,78.092000,28.200000
0.041,-0.240000,0.956000,0.456000,12.802000,64.206000,74.214000,28.150000
0.053,-0.273000,0.934000,0.457000,14.069000,58.466000,71.038000,28.150000
0.060,-0.305000,0.904000,0.406000,13.420000,47.985000,67.511000,28.290000
0.073,-0.285000,0.834000,0.356000,15.878000,35.145000,63.550000,28.200000
0.086,-0.289000,0.803000,0.372000,13.489000,29.168000,63.031000,28.200000
0.093,-0.278000,0.791000,0.377000,13.855000,27.458000,60.832000,28.250000
0.106,-0.294000,0.800000,0.386000,16.351000,26.466000,53.947000,28.150000
0.112,-0.287000,0.806000,0.420000,11.924000,21.809000,43.695000,28.200000
0.124,-0.248000,0.808000,0.448000,9.221000,21.954000,34.878000,28.200000
0.131,-0.190000,0.782000,0.432000,12.832000,25.687000,32.954000,28.200000
0.143,-0.168000,0.714000,0.445000,12.122000,35.344000,27.198000,28.250000
0.150,-0.148000,0.690000,0.415000,12.794000,41.702000,23.847000,28.150000
0.162,-0.168000,0.669000,0.377000,17.870000,45.916000,22.687000,28.250000
0.175,-0.166000,0.656000,0.339000,20.374000,46.122000,18.725000,28.290000
0.182,-0.159000,0.620000,0.294000,19.160000,42.687000,16.756000,28.290000
0.194,-0.165000,0.628000,0.266000,15.962000,38.847000,16.710000,28.200000
0.201,-0.201000,0.622000,0.294000,14.817000,29.046000,13.504000,28.250000
0.213,-0.163000,0.631000,0.295000,13.412000,30.664000,13.863000,28.250000
0.221,-0.181000,0.640000,0.310000,12.176000,26.870000,11.450000,28.200000
0.233,-0.186000,0.647000,0.321000,9.496000,24.038000,10.710000,28.200000
0.240,-0.177000,0.670000,0.318000,10.908000,22.573000,9.214000,28.250000
0.252,-0.215000,0.676000,0.286000,7.267000,22.611000,6.969000,28.250000
0.265,-0.257000,0.709000,0.270000,5.382000,17.374000,2.298000,28.250000
0.273,-0.326000,0.713000,0.273000,1.962000,0.695000,-2.282000,28.200000
0.285,-0.306000,0.714000,0.272000,8.847000,-6.061000,-6.618000,28.110000
0.291,-0.237000,0.738000,0.280000,10.718000,-12.229000,-11.450000,28.250000
0.304,-0.224000,0.793000,0.327000,14.702000,-9.733000,-15.061000,28.150000
0.311,-0.156000,0.811000,0.318000,22.229000,4.160000,-18.542000,28.150000
0.323,-0.224000,0.818000,0.321000,29.565000,10.038000,-20.366000,28.200000
0.330,-0.226000,0.829000,0.326000,29.092000,13.649000,-25.405000,28.200000
0.342,-0.128000,0.810000,0.334000,27.122000,26.794000,-26.313000,28.250000
0.354,-0.163000,0.823000,0.343000,20.504000,24.794000,-26.840000,28.250000
0.361,-0.144000,0.816000,0.324000,21.008000,26.023000,-19.542000,28.150000
0.374,-0.178000,0.855000,0.339000,19.878000,29.580000,-15.344000,28.200000
0.382,-0.176000,0.891000,0.334000,24.947000,32.427000,-15.824000,28.200000
0.393,-0.269000,0.938000,0.325000,28.618000,30.137000,-19.511000,28.200000
0.405,-0.276000,0.931000,0.319000,30.473000,28.832000,-27.847000,28.150000
0.412,-0.271000,0.898000,0.347000,26.809000,33.366000,-31.168000,28.150000
0.424,-0.299000,0.927000,0.363000,19.328000,27.061000,-33.710000,28.200000
0.431,-0.282000,0.938000,0.384000,10.924000,22.160000,-32.794000,28.200000
0.443,-0.316000,0.967000,0.385000,3.397000,16.695000,-27.550000,28.200000
0.450,-0.327000,0.928000,0.342000,-5.351000,5.794000,-31.809000,28.250000
0.463,-0.300000,0.873000,0.293000,-2.008000,4.893000,-33.618000,28.150000
0.475,-0.257000,0.918000,0.323000,-1.595000,8.176000,-38.298000,28.200000
0.482,-0.295000,0.909000,0.349000,0.634000,16.466000,-40.840000,28.110000
0.494,-0.354000,0.965000,0.390000,2.985000,23.420000,-42.756000,28.200000
0.501,-0.356000,0.949000,0.407000,2.794000,29.817000,-46.160000,28.150000
0.514,-0.369000,0.939000,0.374000,9.305000,37.557000,-53.321000,28.150000
0.521,-0.357000,0.901000,0.356000,10.282000,39.275000,-57.565000,28.150000
0.534,-0.401000,0.894000,0.246000,7.000000,29.366000,-56.626000,28.200000
0.540,-0.484000,0.888000,0.284000,4.267000,6.504000,-52.977000,28.200000
0.552,-0.507000,0.931000,0.314000,0.931000,-18.748000,-49.649000,28.150000
0.564,-0.372000,0.905000,0.374000,1.298000,-27.847000,-51.542000,28.250000
0.572,-0.330000,0.876000,0.355000,2.214000,-19.405000,-55.145000,28.250000
0.585,-0.317000,0.816000,0.380000,5.092000,-14.473000,-63.893000,28.200000
0.591,-0.357000,0.796000,0.306000,4.855000,-6.634000,-66.046000,28.110000
0.603,-0.382000,0.839000,0.299000,19.069000,8.824000,-67.466000,28.200000
0.610,-0.479000,0.868000,0.302000,24.985000,11.710000,-70.573000,28.150000
0.623,-0.493000,0.883000,0.312000,27.779000,10.046000,-74.000000,28.250000
0.635,-0.441000,0.906000,0.341000,26.076000,11.992000,-76.107000,28.200000
0.642,-0.405000,0.919000,0.354000,23.962000,14.763000,-69.496000,28.200000
0.653,-0.418000,0.911000,0.342000,17.008000,21.992000,-66.718000,28.150000
0.660,-0.442000,0.884000,0.319000,18.473000,20.885000,-66.122000,28.250000
0.673,-0.481000,0.864000,0.311000,15.695000,17.473000,-67.458000,28.250000
0.685,-0.507000,0.857000,0.298000,20.000000,14.603000,-69.061000,28.200000
0.692,-0.470000,0.866000,0.304000,19.344000,14.382000,-74.084000,28.290000
0.704,-0.524000,0.824000,0.292000,17.916000,11.534000,-72.710000,28.250000
0.711,-0.497000,0.885000,0.342000,25.076000,25.359000,-73.504000,28.250000
0.723,-0.541000,0.857000,0.366000,27.382000,32.443000,-74.710000,28.150000
0.731,-0.647000,0.874000,0.283000,17.794000,27.130000,-74.031000,28.200000
0.742,-0.661000,0.891000,0.344000,24.489000,29.038000,-74.313000,28.200000
0.755,-0.780000,0.876000,0.208000,9.435000,11.099000,-74.122000,28.340000
0.762,-0.554000,0.885000,0.344000,15.168000,29.802000,-79.336000,28.250000
0.774,-0.573000,0.821000,0.291000,15.031000,41.099000,-77.870000,28.250000
0.781,-0.700000,0.792000,0.147000,11.641000,28.740000,-76.595000,28.200000
0.793,-0.557000,0.783000,0.230000,23.122000,47.008000,-79.527000,28.200000
0.800,-0.636000,0.750000,0.218000,24.931000,44.435000,-80.748000,28.110000
0.812,-0.572000,0.698000,0.249000,25.771000,32.092000,-81.038000,28.250000
0.825,-0.633000,0.754000,0.270000,17.237000,28.588000,-74.252000,28.150000
0.831,-0.655000,0.767000,0.223000,14.137000,12.450000,-71.725000,28.290000
0.844,-0.573000,0.763000,0.315000,17.099000,15.969000,-66.695000,28.290000
0.851,-0.590000,0.702000,0.224000,22.901000,26.962000,-65.321000,28.250000
0.863,-0.590000,0.696000,0.300000,26.374000,32.084000,-66.672000,28.250000
0.870,-0.669000,0.748000,0.193000,18.550000,29.443000,-75.695000,28.150000
0.882,-0.673000,0.721000,0.161000,20.878000,28.817000,-75.840000,28.200000
0.894,-0.755000,0.716000,0.196000,11.977000,15.916000,-71.695000,28.290000
0.901,-0.715000,0.720000,0.228000,22.389000,22.420000,-65.595000,28.150000
0.913,-0.849000,0.774000,0.324000,14.252000,13.328000,-62.168000,28.250000
0.921,-0.904000,0.756000,0.247000,9.427000,9.053000,-70.229000,28.250000
0.933,-0.799000,0.693000,0.144000,5.435000,13.290000,-70.298000,28.200000
0.940,-0.822000,0.680000,0.219000,7.260000,-4.000000,-76.878000,28.200000
0.952,-0.658000,0.598000,0.146000,4.481000,9.267000,-72.015000,28.150000
0.965,-0.705000,0.620000,0.190000,8.962000,1.939000,-62.275000,28.340000
0.972,-0.745000,0.656000,0.267000,7.573000,4.084000,-54.580000,28.250000
0.985,-0.754000,0.675000,0.244000,6.786000,9.687000,-48.924000,28.200000
0.991,-0.861000,0.704000,0.288000,1.061000,10.824000,-47.092000,28.200000
1.003,-0.874000,0.697000,0.239000,-1.145000,23.511000,-53.252000,28.290000
1.010,-0.889000,0.617000,0.224000,-2.763000,24.626000,-64.618000,28.200000
1.023,-0.809000,0.557000,0.156000,4.672000,25.420000,-73.237000,28.150000
1.035,-0.761000,0.531000,0.135000,14.588000,28.176000,-75.450000,28.200000
1.042,-0.792000,0.521000,0.128000,22.947000,20.366000,-72.176000,28.290000
1.054,-0.802000,0.526000,0.125000,26.168000,17.023000,-62.962000,28.200000
1.061,-0.825000,0.578000,0.188000,23.351000,10.748000,-57.863000,28.250000
1.073,-0.924000,0.615000,0.175000,21.885000,-0.924000,-58.771000,28.150000
1.081,-0.910000,0.640000,0.182000,21.214000,-17.168000,-61.969000,28.200000
1.092,-0.752000,0.583000,0.165000,7.634000,0.687000,-73.198000,28.200000
1.105,-0.772000,0.582000,0.200000,3.901000,-4.389000,-76.840000,28.290000
1.112,-0.716000,0.496000,0.168000,4.366000,-0.580000,-76.160000,28.250000
1.125,-0.704000,0.481000,0.133000,8.290000,8.588000,-70.420000,28.250000
1.131,-0.749000,0.468000,0.131000,12.198000,11.244000,-66.382000,28.290000
1.143,-0.778000,0.502000,0.160000,14.061000,12.618000,-64.550000,28.200000
1.150,-0.817000,0.538000,0.159000,8.580000,14.000000,-62.084000,28.200000
1.163,-0.835000,0.516000,0.145000,5.947000,10.878000,-60.931000,28.250000
1.169,-0.789000,0.512000,0.136000,2.840000,11.252000,-58.939000,28.250000
1.182,-0.740000,0.441000,0.123000,4.916000,9.328000,-60.893000,28.150000
1.194,-0.650000,0.422000,0.113000,8.718000,13.603000,-59.573000,28.290000
1.201,-0.632000,0.412000,0.113000,10.870000,23.817000,-55.115000,28.110000
1.214,-0.656000,0.381000,0.110000,12.763000,29.015000,-47.000000,28.110000
1.221,-0.728000,0.409000,0.095000,12.817000,34.344000,-36.115000,28.250000
1.234,-0.809000,0.439000,0.081000,11.878000,35.656000,-28.878000,28.250000
1.239,-0.894000,0.455000,0.090000,11.527000,30.076000,-25.756000,28.200000
1.252,-0.976000,0.439000,0.023000,10.496000,24.649000,-27.511000,28.200000
1.265,-0.992000,0.432000,0.058000,6.885000,14.015000,-33.885000,28.250000
1.272,-0.913000,0.376000,0.042000,9.282000,7.626000,-45.718000,28.250000
1.284,-0.758000,0.306000,0.055000,18.191000,13.588000,-49.405000,28.250000
1.291,-0.730000,0.314000,0.086000,23.313000,25.893000,-44.130000,28.200000
1.303,-0.743000,0.333000,0.093000,24.000000,39.832000,-35.542000,28.200000
1.309,-0.853000,0.377000,0.072000,18.542000,48.595000,-25.344000,28.150000
1.323,-0.958000,0.370000,0.036000,14.145000,53.565000,-22.053000,28.250000
1.335,-1.108000,0.382000,0.040000,12.786000,39.130000,-24.954000,28.250000
1.341,-1.168000,0.371000,-0.038000,9.672000,33.542000,-26.260000,28.290000
1.353,-1.199000,0.305000,-0.065000,13.137000,23.695000,-34.130000,28.200000
1.360,-1.137000,0.316000,-0.091000,18.382000,17.145000,-42.344000,28.150000
1.373,-1.073000,0.303000,-0.083000,22.168000,15.282000,-49.679000,28.250000
1.385,-0.938000,0.273000,-0.041000,26.756000,22.183000,-55.519000,28.250000
1.392,-0.889000,0.284000,0.002000,28.458000,30.939000,-56.473000,28.200000
1.404,-0.899000,0.265000,0.006000,28.229000,35.702000,-50.527000,28.390000
1.411,-0.960000,0.291000,0.029000,25.435000,38.382000,-40.084000,28.290000
1.423,-1.058000,0.319000,-0.005000,20.115000,35.298000,-33.931000,28.290000
1.435,-1.088000,0.284000,-0.063000,18.237000,25.863000,-38.267000,28.150000
1.442,-1.045000,0.266000,-0.090000,20.939000,22.718000,-45.664000,28.290000
1.454,-0.987000,0.210000,-0.104000,22.885000,17.130000,-52.527000,28.200000
1.461,-0.847000,0.137000,-0.108000,32.298000,19.443000,-53.557000,28.200000
1.474,-0.763000,0.154000,-0.056000,40.092000,30.847000,-43.328000,28.340000
1.480,-0.764000,0.195000,-0.029000,41.153000,44.511000,-29.847000,28.250000
1.492,-0.849000,0.291000,0.020000,34.206000,57.855000,-15.046000,28.200000
1.504,-0.998000,0.286000,-0.005000,26.519000,60.664000,-16.420000,28.290000
1.511,-1.032000,0.238000,-0.056000,28.214000,65.740000,-30.588000,28.290000
1.524,-1.016000,0.205000,-0.091000,32.870000,68.214000,-42.290000,28.340000
1.530,-1.018000,0.176000,-0.148000,40.038000,69.702000,-50.603000,28.250000
1.542,-0.994000,0.175000,-0.171000,50.870000,75.725000,-47.466000,28.290000
1.554,-1.068000,0.236000,-0.126000,50.817000,79.046000,-45.221000,28.200000
1.561,-1.053000,0.231000,-0.141000,52.763000,80.481000,-45.168000,28.200000
1.574,-1.108000,0.284000,-0.132000,48.351000,90.481000,-41.038000,28.150000
1.581,-1.211000,0.259000,-0.188000,43.328000,80.802000,-49.275000,28.340000
1.592,-1.166000,0.176000,-0.263000,46.267000,74.725000,-63.260000,28.200000
1.604,-1.158000,0.134000,-0.283000,48.634000,60.534000,-75.298000,28.200000
1.611,-1.067000,0.078000,-0.278000,53.962000,37.397000,-82.870000,28.290000
1.624,-0.936000,0.065000,-0.220000,60.038000,24.076000,-74.702000,28.290000
1.631,-0.857000,0.085000,-0.179000,62.015000,16.863000,-60.962000,28.150000
1.642,-0.809000,0.103000,-0.172000,60.779000,20.763000,-45.817000,28.290000
1.655,-0.908000,0.192000,-0.124000,54.221000,28.389000,-35.840000,28.200000
1.661,-1.017000,0.161000,-0.175000,47.969000,24.275000,-36.809000,28.200000
1.674,-1.024000,0.135000,-0.217000,48.168000,24.130000,-46.489000,28.150000
1.681,-1.011000,0.092000,-0.223000,43.137000,20.595000,-50.962000,28.250000
1.693,-0.953000,0.047000,-0.256000,44.473000,13.267000,-55.366000,28.200000
1.705,-0.874000,0.046000,-0.215000,46.427000,12.802000,-50.435000,28.200000
1.712,-0.926000,0.020000,-0.229000,44.313000,11.718000,-42.641000,28.250000
1.724,-0.949000,0.054000,-0.236000,39.336000,13.252000,-35.771000,28.250000
1.731,-1.019000,0.067000,-0.228000,34.931000,6.053000,-36.534000,28.250000
1.743,-0.989000,0.013000,-0.238000,33.611000,0.985000,-45.580000,28.290000
1.750,-0.898000,-0.052000,-0.244000,35.496000,0.901000,-52.305000,28.290000
1.762,-0.834000,-0.028000,-0.203000,36.443000,1.893000,-48.130000,28.250000
1.774,-0.840000,0.000000,-0.197000,32.450000,3.504000,-37.595000,28.250000
1.782,-0.913000,-0.031000,-0.235000,30.053000,6.786000,-29.344000,28.250000
1.793,-1.013000,-0.005000,-0.244000,27.229000,4.779000,-18.756000,28.290000
1.800,-1.136000,0.029000,-0.302000,18.611000,-1.252000,-19.282000,28.290000
1.812,-1.111000,-0.099000,-0.327000,19.664000,-12.107000,-33.550000,28.290000
1.825,-1.010000,-0.090000,-0.302000,23.145000,-12.931000,-42.817000,28.340000
1.831,-0.900000,-0.129000,-0.287000,25.466000,-18.885000,-51.641000,28.250000
1.843,-0.681000,-0.173000,-0.229000,33.924000,-11.893000,-50.435000,28.390000
1.855,-0.642000,-0.084000,-0.149000,33.733000,5.420000,-29.664000,28.290000
1.862,-0.875000,-0.025000,-0.160000,27.718000,12.916000,-16.565000,28.250000
1.874,-1.030000,0.037000,-0.162000,20.595000,12.901000,-11.450000,28.250000
1.881,-1.163000,0.048000,-0.228000,8.580000,5.969000,-17.069000,28.250000
1.893,-1.142000,-0.047000,-0.264000,7.931000,-9.733000,-35.183000,28.290000
1.905,-0.979000,-0.133000,-0.253000,14.160000,-16.954000,-48.504000,28.390000
1.911,-0.784000,-0.182000,-0.234000,19.397000,-18.725000,-47.008000,28.340000
1.924,-0.660000,-0.138000,-0.183000,22.954000,-6.397000,-28.053000,28.250000
1.931,-0.786000,-0.102000,-0.165000,20.519000,1.924000,-14.137000,28.290000
1.943,-0.919000,-0.044000,-0.171000,15.557000,9.397000,-7.397000,28.200000
1.948,-1.085000,-0.044000,-0.211000,6.008000,3.687000,-12.550000,28.200000
1.962,-1.012000,-0.126000,-0.242000,9.847000,-0.656000,-23.466000,28.340000
1.975,-0.942000,-0.146000,-0.217000,9.847000,-0.618000,-27.962000,28.250000
1.982,-0.863000,-0.217000,-0.215000,15.443000,0.313000,-30.947000,28.290000
1.993,-0.800000,-0.175000,-0.178000,23.763000,7.466000,-20.687000,28.290000
2.000,-0.947000,-0.128000,-0.179000,18.557000,5.183000,-12.878000,28.290000
2.012,-1.009000,-0.147000,-0.214000,15.504000,0.824000,-9.847000,28.290000
2.025,-1.056000,-0.113000,-0.221000,9.397000,-4.824000,-8.313000,28.340000
2.032,-1.020000,-0.188000,-0.252000,8.786000,-9.557000,-14.786000,28.290000
2.043,-0.938000,-0.159000,-0.206000,11.527000,-6.382000,-14.015000,28.290000
2.050,-1.043000,-0.146000,-0.239000,8.366000,-8.366000,-12.191000,28.200000
2.062,-1.062000,-0.161000,-0.248000,12.725000,-12.443000,-20.702000,28.250000
2.074,-1.053000,-0.163000,-0.231000,14.618000,-13.206000,-23.962000,28.250000
2.081,-1.050000,-0.179000,-0.218000,14.740000,-14.504000,-27.947000,28.290000
2.093,-0.987000,-0.173000,-0.177000,18.183000,-8.779000,-29.420000,28.390000
2.105,-1.028000,-0.123000,-0.174000,13.328000,-3.168000,-33.557000,28.290000
2.111,-1.009000,-0.175000,-0.169000,14.267000,-1.389000,-43.557000,28.250000
2.124,-1.011000,-0.116000,-0.140000,8.336000,1.603000,-42.641000,28.340000
2.131,-1.033000,-0.168000,-0.197000,3.611000,-4.168000,-41.702000,28.390000
2.143,-0.980000,-0.203000,-0.221000,5.725000,-8.504000,-45.298000,28.290000
2.149,-0.931000,-0.254000,-0.249000,9.641000,-12.176000,-44.374000,28.250000
2.162,-0.919000,-0.289000,-0.264000,15.519000,-14.710000,-42.504000,28.340000
2.174,-0.920000,-0.252000,-0.223000,19.542000,-14.053000,-35.588000,28.340000
2.181,-1.035000,-0.193000,-0.215000,14.695000,-18.015000,-32.244000,28.290000
2.192,-1.046000,-0.209000,-0.210000,14.985000,-20.031000,-38.099000,28.390000
2.204,-1.075000,-0.183000,-0.180000,12.069000,-17.763000,-44.145000,28.290000
2.211,-1.038000,-0.215000,-0.210000,12.450000,-15.763000,-54.031000,28.340000
2.224,-0.995000,-0.259000,-0.176000,17.695000,-5.802000,-58.099000,28.340000
2.230,-1.017000,-0.300000,-0.206000,17.901000,1.405000,-59.389000,28.290000
2.242,-1.046000,-0.357000,-0.194000,26.267000,4.382000,-63.924000,28.200000
2.254,-1.014000,-0.304000,-0.168000,27.824000,9.733000,-59.656000,28.250000
2.261,-1.074000,-0.304000,-0.163000,22.603000,4.374000,-60.901000,28.340000
2.274,-1.024000,-0.322000,-0.162000,23.634000,0.687000,-66.985000,28.340000
2.281,-0.999000,-0.313000,-0.183000,17.191000,-5.221000,-68.023000,28.290000
2.292,-0.905000,-0.401000,-0.196000,18.542000,-13.870000,-71.191000,28.290000
2.304,-0.813000,-0.424000,-0.181000,22.947000,-14.511000,-68.450000,28.340000
2.311,-0.775000,-0.425000,-0.163000,23.298000,-14.107000,-60.458000,28.250000
2.324,-0.720000,-0.441000,-0.161000,27.099000,-9.191000,-53.786000,28.390000
2.335,-0.765000,-0.385000,-0.138000,25.954000,-1.229000,-45.924000,28.290000
2.342,-0.847000,-0.376000,-0.143000,25.084000,3.893000,-45.412000,28.390000
2.354,-0.891000,-0.360000,-0.166000,24.679000,8.061000,-43.214000,28.340000
2.361,-1.012000,-0.344000,-0.223000,17.168000,5.611000,-46.137000,28.340000
2.374,-0.948000,-0.424000,-0.282000,20.420000,1.229000,-58.145000,28.290000
2.380,-0.870000,-0.494000,-0.282000,26.015000,0.939000,-60.725000,28.290000
2.392,-0.812000,-0.512000,-0.273000,30.649000,3.710000,-61.603000,28.290000
2.404,-0.762000,-0.486000,-0.180000,34.954000,8.061000,-57.198000,28.340000
2.411,-0.822000,-0.463000,-0.154000,32.344000,8.000000,-54.794000,28.340000
2.424,-0.823000,-0.448000,-0.136000,32.763000,6.992000,-53.756000,28.290000
2.430,-0.875000,-0.440000,-0.131000,30.137000,1.672000,-50.046000,28.290000
2.442,-0.909000,-0.457000,-0.124000,28.710000,-4.908000,-45.534000,28.250000
2.454,-0.936000,-0.395000,-0.224000,19.260000,-3.702000,-47.977000,28.340000
2.461,-0.932000,-0.516000,-0.271000,24.847000,-10.641000,-58.466000,28.250000
2.473,-0.824000,-0.603000,-0.283000,36.053000,-11.145000,-67.260000,28.290000
2.485,-0.774000,-0.587000,-0.207000,42.435000,-11.000000,-67.977000,28.290000
2.491,-0.706000,-0.561000,-0.139000,45.244000,-11.947000,-68.489000,28.250000
2.503,-0.643000,-0.524000,-0.057000,46.031000,-6.015000,-63.435000,28.340000
2.510,-0.663000,-0.533000,-0.050000,40.779000,-0.565000,-60.092000,28.340000
2.524,-0.679000,-0.558000,-0.065000,36.672000,2.305000,-56.710000,28.290000
2.534,-0.748000,-0.553000,-0.133000,29.198000,-2.160000,-53.092000,28.290000
2.541,-0.719000,-0.591000,-0.144000,31.282000,-3.687000,-54.779000,28.250000
2.553,-0.734000,-0.620000,-0.179000,33.450000,-3.725000,-51.008000,28.250000
2.560,-0.815000,-0.611000,-0.150000,36.763000,-14.672000,-51.725000,28.250000
2.572,-0.849000,-0.561000,-0.087000,39.496000,-23.122000,-55.733000,28.290000
2.584,-0.864000,-0.548000,-0.037000,40.878000,-40.076000,-58.947000,28.200000
2.591,-0.762000,-0.567000,0.025000,33.763000,-42.290000,-60.244000,28.390000
2.603,-0.665000,-0.574000,0.061000,29.084000,-36.496000,-58.015000,28.440000
2.615,-0.602000,-0.590000,0.057000,27.107000,-22.481000,-59.145000,28.390000
2.622,-0.574000,-0.636000,0.043000,26.443000,-7.206000,-60.473000,28.290000
2.634,-0.645000,-0.623000,0.039000,26.160000,4.756000,-65.840000,28.290000
2.641,-0.622000,-0.664000,0.027000,30.809000,8.557000,-71.840000,28.340000
2.653,-0.620000,-0.638000,0.025000,33.794000,18.229000,-70.496000,28.340000
2.660,-0.693000,-0.658000,-0.006000,29.420000,22.695000,-73.176000,28.290000
2.672,-0.715000,-0.674000,-0.059000,30.855000,26.435000,-73.649000,28.390000
2.685,-0.886000,-0.622000,-0.134000,23.992000,21.695000,-77.000000,28.290000
2.691,-0.972000,-0.682000,-0.192000,30.626000,2.771000,-87.679000,28.250000
2.703,-0.936000,-0.694000,-0.155000,35.092000,-7.397000,-93.672000,28.440000
2.715,-0.915000,-0.673000,-0.099000,30.603000,-20.107000,-98.519000,28.290000
2.722,-0.836000,-0.745000,-0.046000,36.260000,-24.840000,-105.397000,28.290000
2.734,-0.753000,-0.757000,-0.001000,42.626000,-25.053000,-111.664000,28.290000
2.742,-0.669000,-0.778000,0.006000,48.733000,-13.595000,-122.672000,28.340000
2.752,-0.576000,-0.793000,0.040000,56.656000,-2.374000,-126.947000,28.340000
2.764,-0.530000,-0.763000,0.087000,49.321000,-3.473000,-120.641000,28.290000
2.771,-0.427000,-0.808000,0.080000,43.718000,-6.183000,-109.275000,28.290000
2.783,-0.391000,-0.828000,0.035000,40.947000,-6.321000,-97.214000,28.390000
2.791,-0.373000,-0.892000,-0.016000,51.588000,-11.824000,-88.374000,28.390000
2.802,-0.340000,-0.854000,-0.015000,53.511000,-11.824000,-81.634000,28.340000
2.814,-0.366000,-0.846000,-0.017000,52.405000,-15.992000,-72.824000,28.290000
2.821,-0.296000,-0.846000,-0.005000,50.603000,-13.466000,-65.038000,28.290000
2.833,-0.234000,-0.834000,0.035000,48.267000,-5.221000,-59.206000,28.290000
2.845,-0.306000,-0.852000,0.023000,44.595000,1.634000,-55.214000,28.340000
2.852,-0.349000,-0.833000,0.011000,46.481000,10.389000,-50.740000,28.340000
2.864,-0.394000,-0.843000,0.033000,47.550000,9.374000,-46.695000,28.290000
2.872,-0.453000,-0.844000,0.056000,44.924000,2.603000,-43.969000,28.290000
2.883,-0.470000,-0.845000,0.053000,43.168000,-6.496000,-43.191000,28.290000
2.891,-0.448000,-0.867000,0.026000,39.595000,-16.137000,-42.786000,28.340000
2.902,-0.369000,-0.915000,0.050000,41.061000,-21.313000,-40.145000,28.340000
2.914,-0.331000,-0.914000,0.114000,40.328000,-22.069000,-32.511000,28.390000
2.921,-0.313000,-0.884000,0.176000,37.550000,-23.771000,-25.031000,28.390000
2.933,-0.337000,-0.845000,0.243000,31.496000,-20.305000,-20.427000,28.290000
2.945,-0.323000,-0.875000,0.227000,30.748000,-17.198000,-18.038000,28.340000
2.952,-0.403000,-0.837000,0.229000,31.229000,-10.427000,-21.664000,28.340000
2.964,-0.457000,-0.832000,0.187000,26.603000,-4.061000,-29.351000,28.290000
2.971,-0.458000,-0.901000,0.172000,30.084000,-0.656000,-34.290000,28.390000
2.983,-0.484000,-0.878000,0.189000,30.672000,-3.534000,-35.321000,28.290000
2.995,-0.498000,-0.916000,0.152000,32.237000,-18.611000,-31.611000,28.440000
3.002,-0.409000,-0.944000,0.184000,36.664000,-31.084000,-26.466000,28.340000
3.014,-0.283000,-0.861000,0.226000,38.382000,-28.183000,-24.580000,28.390000
3.021,-0.292000,-0.875000,0.253000,36.435000,-21.076000,-22.725000,28.290000
3.033,-0.309000,-0.838000,0.272000,31.802000,-13.779000,-23.214000,28.340000
3.045,-0.299000,-0.885000,0.245000,27.183000,-7.412000,-20.534000,28.250000
3.051,-0.327000,-0.870000,0.252000,24.382000,-0.893000,-20.252000,28.340000
3.064,-0.366000,-0.860000,0.254000,21.053000,3.656000,-22.214000,28.390000
3.071,-0.412000,-0.859000,0.233000,19.290000,2.412000,-24.359000,28.390000
3.083,-0.391000,-0.898000,0.185000,20.481000,-10.198000,-24.252000,28.340000
3.095,-0.345000,-0.943000,0.169000,19.817000,-26.389000,-15.221000,28.340000
3.102,-0.288000,-0.916000,0.172000,19.954000,-38.069000,-6.885000,28.340000
3.114,-0.203000,-0.901000,0.239000,18.313000,-36.023000,-2.435000,28.290000
3.121,-0.146000,-0.861000,0.296000,15.160000,-19.435000,-1.695000,28.390000
3.133,-0.173000,-0.849000,0.311000,11.656000,-0.786000,-4.328000,28.440000
3.141,-0.250000,-0.861000,0.292000,5.840000,6.573000,-3.672000,28.340000
3.153,-0.323000,-0.911000,0.229000,3.267000,0.160000,2.893000,28.440000
3.165,-0.353000,-0.914000,0.228000,1.267000,-11.443000,9.000000,28.290000
3.172,-0.347000,-0.902000,0.220000,2.153000,-19.344000,10.397000,28.290000
3.185,-0.339000,-0.899000,0.241000,5.130000,-23.817000,10.466000,28.200000
3.191,-0.303000,-0.867000,0.283000,5.725000,-23.183000,8.718000,28.390000
3.203,-0.219000,-0.882000,0.352000,6.573000,-19.267000,11.664000,28.250000
3.210,-0.239000,-0.839000,0.382000,2.359000,-12.313000,14.977000,28.290000
3.224,-0.291000,-0.843000,0.341000,-3.244000,-9.580000,17.221000,28.290000
3.235,-0.292000,-0.867000,0.307000,-4.794000,-9.710000,17.870000,28.290000
3.242,-0.347000,-0.878000,0.274000,-7.122000,-11.336000,17.992000,28.440000
3.254,-0.349000,-0.874000,0.283000,-8.969000,-18.206000,18.145000,28.340000
3.261,-0.281000,-0.895000,0.320000,-9.267000,-22.359000,21.916000,28.290000
3.273,-0.237000,-0.853000,0.334000,-14.473000,-21.718000,27.450000,28.290000
3.285,-0.223000,-0.847000,0.316000,-19.015000,-18.038000,32.275000,28.390000
3.292,-0.242000,-0.856000,0.262000,-20.344000,-15.183000,35.634000,28.340000
3.304,-0.298000,-0.862000,0.219000,-20.618000,-9.321000,35.756000,28.340000
3.310,-0.358000,-0.866000,0.208000,-18.931000,-6.427000,35.214000,28.390000
3.323,-0.413000,-0.868000,0.208000,-17.924000,-2.634000,35.656000,28.390000
3.335,-0.454000,-0.874000,0.215000,-14.962000,-4.008000,35.435000,28.390000
3.342,-0.442000,-0.844000,0.240000,-14.214000,-8.702000,33.725000,28.340000
3.354,-0.404000,-0.823000,0.250000,-14.130000,-12.084000,31.939000,28.340000
3.360,-0.292000,-0.824000,0.277000,-14.542000,-13.366000,32.191000,28.390000
3.374,-0.196000,-0.827000,0.301000,-13.313000,-5.985000,34.366000,28.390000
3.386,-0.171000,-0.768000,0.351000,-16.382000,6.809000,36.565000,28.390000
3.392,-0.257000,-0.748000,0.396000,-19.664000,10.740000,39.595000,28.390000
3.404,-0.383000,-0.728000,0.384000,-24.122000,4.389000,43.046000,28.340000
3.411,-0.471000,-0.769000,0.311000,-28.733000,-12.122000,49.420000,28.390000
3.424,-0.499000,-0.833000,0.260000,-27.397000,-25.931000,57.511000,28.390000
3.435,-0.472000,-0.837000,0.225000,-26.008000,-29.412000,59.878000,28.390000
3.442,-0.463000,-0.837000,0.200000,-25.168000,-24.359000,56.817000,28.340000
3.454,-0.405000,-0.852000,0.161000,-23.901000,-15.260000,51.061000,28.340000
3.461,-0.313000,-0.878000,0.152000,-23.519000,-6.504000,49.092000,28.390000
3.474,-0.252000,-0.838000,0.156000,-23.313000,-2.924000,52.702000,28.390000
3.485,-0.255000,-0.849000,0.154000,-24.740000,-2.832000,61.336000,28.390000
3.492,-0.285000,-0.846000,0.159000,-27.008000,0.733000,71.534000,28.440000
3.504,-0.458000,-0.836000,0.135000,-32.076000,2.580000,80.252000,28.440000
3.511,-0.610000,-0.812000,0.090000,-32.198000,1.786000,79.664000,28.390000
3.524,-0.696000,-0.789000,0.097000,-31.405000,-0.122000,72.267000,28.390000
3.530,-0.635000,-0.768000,0.098000,-27.931000,0.809000,61.962000,28.390000
3.543,-0.458000,-0.790000,0.135000,-23.786000,11.397000,53.947000,28.340000
3.554,-0.311000,-0.797000,0.186000,-21.107000,29.015000,53.809000,28.340000
3.561,-0.258000,-0.781000,0.202000,-24.298000,41.939000,61.076000,28.340000
3.574,-0.317000,-0.777000,0.237000,-26.893000,40.664000,73.626000,28.390000
3.581,-0.497000,-0.708000,0.197000,-35.351000,28.450000,90.565000,28.290000
3.592,-0.693000,-0.715000,0.134000,-42.702000,0.985000,99.511000,28.290000
3.605,-0.719000,-0.734000,0.087000,-41.153000,-11.885000,97.985000,28.340000
3.611,-0.723000,-0.721000,0.091000,-39.954000,-13.794000,90.481000,28.440000
3.624,-0.666000,-0.713000,0.088000,-35.435000,-10.260000,78.008000,28.290000
3.630,-0.534000,-0.721000,0.119000,-28.008000,6.878000,66.924000,28.390000
3.642,-0.402000,-0.737000,0.130000,-23.527000,29.344000,59.099000,28.530000
3.655,-0.345000,-0.736000,0.139000,-22.290000,48.870000,61.122000,28.440000
3.661,-0.419000,-0.634000,0.212000,-33.145000,59.870000,68.504000,28.290000
3.674,-0.543000,-0.625000,0.195000,-46.595000,60.542000,76.489000,28.390000
3.681,-0.652000,-0.635000,0.178000,-56.046000,52.672000,85.901000,28.290000
3.693,-0.715000,-0.642000,0.110000,-64.573000,35.718000,96.802000,28.340000
3.705,-0.820000,-0.606000,0.050000,-70.954000,24.634000,102.405000,28.340000
3.712,-0.973000,-0.602000,-0.034000,-71.153000,3.374000,97.748000,28.390000
3.724,-0.949000,-0.675000,-0.113000,-58.809000,-12.260000,89.756000,28.290000
3.730,-0.909000,-0.677000,-0.125000,-46.023000,-16.015000,81.435000,28.390000
3.743,-0.784000,-0.691000,-0.067000,-31.901000,-4.756000,76.664000,28.340000
3.754,-0.675000,-0.681000,-0.045000,-22.206000,17.153000,74.183000,28.340000
3.761,-0.688000,-0.607000,0.042000,-17.893000,35.382000,75.389000,28.390000
3.774,-0.705000,-0.570000,0.097000,-24.412000,42.084000,77.023000,28.290000
3.781,-0.775000,-0.455000,0.193000,-44.168000,28.061000,82.939000,28.390000
3.793,-0.909000,-0.478000,0.096000,-62.427000,9.672000,92.282000,28.390000
3.805,-1.014000,-0.546000,-0.054000,-68.618000,-16.740000,98.534000,28.340000
3.811,-1.005000,-0.614000,-0.166000,-57.496000,-41.588000,94.893000,28.290000
3.823,-0.896000,-0.603000,-0.159000,-43.198000,-47.740000,91.023000,28.390000
3.832,-0.804000,-0.583000,-0.130000,-35.458000,-32.542000,86.160000,28.390000
3.842,-0.707000,-0.573000,-0.090000,-23.534000,-8.382000,77.153000,28.340000
3.854,-0.715000,-0.500000,-0.027000,-19.992000,10.351000,73.473000,28.440000
3.861,-0.793000,-0.461000,-0.009000,-26.733000,14.931000,72.053000,28.390000
3.873,-0.858000,-0.421000,0.028000,-35.405000,-1.595000,76.595000,28.480000
3.885,-0.948000,-0.409000,-0.014000,-48.679000,-30.389000,89.221000,28.440000
3.892,-1.026000,-0.493000,-0.110000,-55.740000,-71.969000,102.855000,28.440000
3.903,-0.961000,-0.485000,-0.103000,-51.130000,-102.336000,116.427000,28.340000
3.910,-0.927000,-0.473000,-0.094000,-48.214000,-121.908000,124.618000,28.390000
3.922,-0.798000,-0.485000,-0.114000,-35.954000,-125.885000,125.031000,28.390000
3.934,-0.699000,-0.448000,-0.094000,-25.099000,-110.618000,117.672000,28.440000
3.941,-0.574000,-0.434000,-0.030000,-15.794000,-82.634000,107.160000,28.440000
3.952,-0.506000,-0.348000,0.083000,-8.718000,-46.664000,105.832000,28.340000
3.964,-0.634000,-0.278000,0.103000,-13.603000,-15.992000,104.794000,28.390000
3.972,-0.816000,-0.188000,0.121000,-21.458000,-5.641000,105.092000,28.390000
3.984,-1.021000,-0.176000,0.081000,-34.244000,-21.985000,108.366000,28.480000
3.995,-1.027000,-0.227000,0.062000,-40.802000,-41.863000,109.237000,28.340000
4.002,-0.886000,-0.301000,0.049000,-38.053000,-48.763000,118.611000,28.440000
4.014,-0.844000,-0.266000,0.047000,-33.664000,-33.916000,127.130000,28.390000
4.021,-0.865000,-0.283000,0.008000,-20.237000,-13.351000,121.092000,28.390000
4.033,-0.828000,-0.266000,0.010000,-2.504000,16.473000,110.557000,28.340000
4.045,-0.914000,-0.171000,0.060000,8.382000,44.603000,102.244000,28.250000
4.052,-1.019000,-0.041000,0.152000,4.427000,58.000000,87.229000,28.390000
4.064,-1.127000,0.032000,0.183000,-12.130000,53.710000,77.809000,28.390000
4.072,-1.158000,0.026000,0.108000,-36.664000,29.954000,74.031000,28.480000
4.083,-1.157000,-0.151000,-0.018000,-40.038000,1.924000,81.244000,28.440000
4.095,-1.095000,-0.190000,-0.016000,-34.176000,-17.252000,90.168000,28.440000
4.102,-1.052000,-0.166000,0.017000,-27.947000,-20.336000,97.931000,28.480000
4.114,-0.962000,-0.159000,0.064000,-14.718000,-1.557000,95.107000,28.480000
4.121,-0.962000,-0.117000,0.062000,-2.267000,28.321000,82.519000,28.390000
4.134,-1.031000,-0.102000,0.089000,11.038000,51.046000,63.420000,28.340000
4.141,-1.081000,-0.007000,0.104000,10.733000,57.450000,49.252000,28.340000
4.152,-1.136000,0.013000,0.088000,-0.473000,43.962000,44.450000,28.390000
4.165,-1.024000,-0.077000,0.076000,-6.427000,21.267000,47.840000,28.390000
4.173,-0.854000,-0.137000,0.102000,-6.908000,7.908000,60.656000,28.390000
4.184,-0.738000,-0.095000,0.129000,-6.847000,11.595000,79.084000,28.440000
4.191,-0.738000,-0.024000,0.160000,-9.191000,28.885000,92.885000,28.440000
4.203,-0.835000,0.050000,0.101000,-13.221000,57.679000,97.382000,28.290000
4.210,-1.067000,0.121000,0.039000,-11.168000,70.076000,91.519000,28.480000
4.223,-1.229000,0.137000,-0.024000,-9.229000,69.031000,75.115000,28.440000
4.235,-1.282000,0.142000,-0.102000,-7.939000,56.198000,59.527000,28.530000
4.242,-1.226000,0.107000,-0.127000,-9.771000,34.847000,47.130000,28.250000
4.254,-1.111000,0.074000,-0.096000,-11.534000,7.290000,41.176000,28.480000
4.260,-0.963000,0.024000,-0.065000,-15.206000,-21.672000,45.275000,28.390000
4.274,-0.728000,-0.051000,-0.034000,-12.878000,-31.092000,59.260000,28.340000
4.285,-0.644000,0.100000,0.074000,-14.527000,-15.160000,88.473000,28.340000
4.292,-0.770000,0.170000,0.078000,-21.130000,7.550000,109.450000,28.480000
4.304,-1.038000,0.298000,0.038000,-25.076000,28.527000,112.458000,28.480000
4.310,-1.381000,0.355000,-0.101000,-31.107000,20.359000,92.031000,28.390000
4.324,-1.468000,0.285000,-0.185000,-33.718000,-9.237000,63.924000,28.340000
4.335,-1.368000,0.139000,-0.168000,-28.206000,-44.702000,38.817000,28.440000
4.342,-0.994000,-0.041000,-0.108000,-18.038000,-68.115000,25.336000,28.290000
4.353,-0.456000,-0.070000,0.062000,-2.023000,-37.450000,36.809000,28.480000
4.361,-0.321000,0.024000,0.168000,3.641000,20.679000,56.931000,28.390000
4.374,-0.503000,0.181000,0.235000,2.824000,77.046000,70.229000,28.390000
4.381,-0.924000,0.392000,0.217000,-6.466000,103.832000,73.588000,28.440000
4.393,-1.334000,0.482000,0.110000,-32.092000,81.931000,65.992000,28.390000
4.405,-1.461000,0.453000,-0.003000,-56.122000,36.153000,52.931000,28.480000
4.411,-1.440000,0.291000,-0.140000,-72.214000,-27.840000,43.137000,28.340000
4.425,-1.277000,0.114000,-0.263000,-74.092000,-99.427000,36.473000,28.340000
4.430,-0.733000,0.021000,-0.227000,-50.832000,-117.420000,54.427000,28.340000
4.443,-0.485000,0.107000,-0.108000,-39.282000,-100.145000,86.573000,28.390000
4.454,-0.463000,0.230000,-0.053000,-25.611000,-48.962000,106.779000,28.290000
4.461,-0.729000,0.413000,-0.000000,-18.794000,6.107000,107.595000,28.440000
4.474,-1.117000,0.502000,-0.067000,-20.573000,38.229000,89.168000,28.340000
4.486,-1.340000,0.522000,-0.153000,-23.641000,40.031000,63.702000,28.390000
4.492,-1.342000,0.398000,-0.257000,-20.595000,14.687000,43.076000,28.390000
4.504,-1.175000,0.278000,-0.255000,-8.626000,-18.420000,33.710000,28.480000
4.511,-0.910000,0.286000,-0.118000,1.458000,-34.748000,43.351000,28.440000
4.524,-0.720000,0.291000,-0.011000,8.756000,-27.511000,60.740000,28.340000
4.531,-0.567000,0.406000,0.116000,13.176000,18.939000,76.481000,28.390000
4.543,-0.587000,0.532000,0.154000,15.351000,81.939000,78.893000,28.390000
4.555,-0.770000,0.591000,0.080000,12.901000,150.031000,59.412000,28.480000
4.562,-0.983000,0.535000,-0.062000,9.863000,188.504000,33.382000,28.440000
4.575,-1.089000,0.457000,-0.176000,12.214000,198.153000,15.252000,28.340000
4.581,-1.311000,0.417000,-0.196000,7.229000,158.939000,12.160000,28.480000
4.593,-1.341000,0.351000,-0.224000,0.702000,92.511000,13.275000,28.390000
4.600,-1.063000,0.317000,-0.161000,-4.496000,36.038000,27.786000,28.340000
4.612,-0.837000,0.350000,-0.111000,-14.053000,11.519000,51.000000,28.440000
4.625,-0.805000,0.388000,-0.101000,-26.397000,6.321000,68.740000,28.390000
4.631,-0.837000,0.402000,-0.121000,-31.588000,14.832000,73.656000,28.480000
4.643,-0.951000,0.443000,-0.160000,-31.725000,19.855000,68.168000,28.390000
4.650,-1.018000,0.432000,-0.184000,-26.313000,14.756000,54.809000,28.440000
4.662,-0.933000,0.396000,-0.188000,-20.931000,2.061000,44.160000,28.340000
4.675,-0.803000,0.408000,-0.145000,-18.550000,-5.969000,44.740000,28.480000
4.681,-0.697000,0.430000,-0.087000,-18.695000,-10.122000,55.099000,28.480000
4.693,-0.727000,0.494000,-0.072000,-24.939000,-20.534000,69.366000,28.480000
4.700,-0.826000,0.541000,-0.095000,-35.412000,-37.351000,81.901000,28.440000
4.712,-0.849000,0.532000,-0.140000,-42.206000,-57.290000,88.962000,28.530000
4.725,-0.754000,0.530000,-0.153000,-43.908000,-66.328000,92.985000,28.390000
4.732,-0.690000,0.520000,-0.166000,-40.183000,-63.336000,97.122000,28.390000
4.743,-0.690000,0.552000,-0.170000,-31.206000,-42.611000,94.878000,28.390000
4.750,-0.754000,0.628000,-0.134000,-26.229000,-26.924000,87.557000,28.440000
4.762,-0.816000,0.652000,-0.107000,-20.389000,-13.176000,79.160000,28.440000
4.775,-0.845000,0.740000,-0.064000,-22.191000,-8.519000,73.794000,28.480000
4.782,-0.851000,0.725000,-0.050000,-26.908000,-11.580000,68.817000,28.390000
4.794,-0.829000,0.694000,-0.036000,-31.939000,-19.481000,65.137000,28.340000
4.800,-0.788000,0.640000,-0.071000,-34.397000,-32.756000,65.763000,28.340000
4.812,-0.686000,0.567000,-0.070000,-31.908000,-42.763000,69.183000,28.390000
4.825,-0.474000,0.604000,-0.026000,-23.634000,-27.611000,80.321000,28.390000
4.831,-0.407000,0.710000,0.084000,-20.649000,3.939000,98.496000,28.480000
4.843,-0.441000,0.750000,0.075000,-20.443000,32.466000,109.878000,28.440000
4.850,-0.666000,0.862000,0.066000,-29.718000,53.824000,107.969000,28.340000
4.862,-0.828000,0.838000,0.008000,-40.198000,53.191000,98.069000,28.390000
4.875,-0.854000,0.766000,-0.053000,-42.519000,40.840000,86.183000,28.480000
4.881,-0.828000,0.732000,-0.090000,-42.542000,21.382000,80.595000,28.390000
4.893,-0.767000,0.666000,-0.119000,-40.115000,-5.046000,78.908000,28.340000
4.900,-0.659000,0.648000,-0.080000,-31.847000,-26.382000,81.649000,28.440000
4.912,-0.583000,0.717000,-0.041000,-26.931000,-39.977000,90.191000,28.480000
4.926,-0.459000,0.750000,0.019000,-22.069000,-34.863000,102.878000,28.480000
4.932,-0.411000,0.878000,0.123000,-22.947000,-19.290000,115.840000,28.480000
4.944,-0.495000,0.955000,0.135000,-27.595000,-2.634000,125.053000,28.340000
4.950,-0.651000,0.993000,0.087000,-33.458000,7.557000,124.992000,28.440000
4.963,-0.831000,0.990000,-0.005000,-38.244000,3.939000,111.992000,28.480000
4.974,-0.937000,0.950000,-0.025000,-42.298000,-14.695000,93.756000,28.480000
4.983,-0.859000,0.871000,-0.044000,-36.924000,-32.191000,78.000000,28.530000
4.993,-0.713000,0.854000,-0.024000,-26.977000,-39.000000,70.779000,28.440000
5.000,-0.528000,0.871000,0.007000,-18.580000,-32.061000,70.779000,28.340000
5.012,-0.437000,0.908000,0.041000,-15.511000,-4.511000,76.076000,28.390000
5.025,-0.514000,0.975000,0.047000,-17.229000,9.023000,77.244000,28.480000
5.033,-0.662000,0.971000,0.017000,-19.779000,9.840000,75.046000,28.340000
5.044,-0.734000,0.942000,-0.013000,-21.611000,-1.550000,69.519000,28.440000
5.051,-0.752000,0.907000,-0.053000,-17.191000,-19.038000,66.214000,28.390000
5.063,-0.713000,0.861000,-0.014000,-19.351000,-45.313000,62.542000,28.480000
5.075,-0.612000,0.915000,0.027000,-15.977000,-50.481000,64.061000,28.480000
5.082,-0.507000,0.898000,0.056000,-17.275000,-52.611000,65.038000,28.440000
5.094,-0.418000,0.906000,0.084000,-15.298000,-43.282000,68.702000,28.440000
5.101,-0.429000,0.916000,0.121000,-17.176000,-36.496000,69.046000,28.480000
5.113,-0.433000,0.886000,0.077000,-14.191000,-33.817000,69.168000,28.480000
5.125,-0.472000,0.912000,0.106000,-14.374000,-34.649000,69.206000,28.390000
5.132,-0.470000,0.883000,0.102000,-10.252000,-40.122000,71.206000,28.480000
5.144,-0.393000,0.945000,0.129000,-3.725000,-33.214000,79.038000,28.440000
5.151,-0.452000,1.033000,0.175000,-1.328000,-21.092000,89.969000,28.480000
5.164,-0.550000,1.088000,0.171000,-4.061000,-5.000000,97.458000,28.480000
5.171,-0.659000,1.154000,0.160000,-10.573000,15.588000,94.580000,28.480000
5.184,-0.838000,1.149000,0.085000,-17.237000,19.641000,83.282000,28.530000
5.195,-0.995000,1.098000,0.045000,-21.840000,8.298000,63.565000,28.440000
5.202,-0.932000,0.970000,-0.064000,-18.031000,-2.145000,31.611000,28.480000
5.214,-0.800000,0.868000,-0.062000,-6.336000,-20.382000,-0.870000,28.480000
5.221,-0.512000,0.838000,0.000000,6.931000,-27.672000,-17.885000,28.530000
5.233,-0.291000,0.834000,0.074000,17.527000,-28.366000,-19.534000,28.440000
5.240,-0.182000,0.868000,0.161000,17.756000,-20.053000,-7.321000,28.530000
5.252,-0.128000,0.890000,0.207000,19.260000,-19.038000,8.847000,28.390000
5.264,-0.179000,0.933000,0.265000,15.924000,-17.489000,28.740000,28.390000
5.271,-0.291000,0.983000,0.273000,1.855000,-19.985000,41.901000,28.440000
5.284,-0.352000,0.984000,0.247000,-9.206000,-25.023000,46.802000,28.440000
5.291,-0.394000,0.992000,0.223000,-16.008000,-29.901000,46.076000,28.440000
5.303,-0.367000,0.958000,0.181000,-20.244000,-30.023000,40.573000,28.390000
5.315,-0.315000,0.937000,0.174000,-17.802000,-23.702000,37.115000,28.390000
5.322,-0.270000,0.940000,0.182000,-15.137000,-10.725000,35.771000,28.580000
5.334,-0.274000,0.941000,0.188000,-12.008000,0.092000,33.046000,28.530000
5.341,-0.321000,0.972000,0.175000,-10.534000,6.458000,29.328000,28.440000
5.353,-0.349000,0.945000,0.141000,-12.244000,0.656000,21.527000,28.480000
5.360,-0.347000,0.931000,0.120000,-11.321000,-12.084000,16.687000,28.390000
5.373,-0.324000,0.941000,0.116000,-10.947000,-30.885000,17.779000,28.440000
5.385,-0.256000,0.901000,0.133000,-8.618000,-48.313000,21.382000,28.440000
5.391,-0.172000,0.916000,0.150000,-3.427000,-55.580000,29.252000,28.480000
5.404,-0.154000,0.957000,0.237000,-4.313000,-56.466000,37.359000,28.480000
5.411,-0.103000,0.999000,0.258000,-0.015000,-43.580000,44.298000,28.480000
5.425,-0.178000,1.051000,0.271000,-9.573000,-35.565000,41.435000,28.440000
5.431,-0.227000,1.008000,0.177000,-18.603000,-28.817000,34.557000,28.440000
5.442,-0.292000,0.984000,0.147000,-19.756000,-27.809000,32.237000,28.480000
5.454,-0.330000,0.929000,0.097000,-17.344000,-37.802000,29.008000,28.390000
5.461,-0.260000,0.921000,0.094000,-10.084000,-43.641000,26.931000,28.440000
5.475,-0.180000,0.946000,0.128000,-5.603000,-46.000000,28.702000,28.530000
5.481,-0.129000,0.964000,0.158000,-3.863000,-41.969000,34.817000,28.440000
5.492,-0.079000,1.019000,0.203000,-7.282000,-26.595000,41.756000,28.480000
5.504,-0.138000,1.021000,0.180000,-13.557000,-19.267000,45.282000,28.480000
5.511,-0.233000,1.022000,0.150000,-16.954000,-20.336000,48.344000,28.390000
5.523,-0.367000,1.033000,0.083000,-15.840000,-30.275000,46.489000,28.340000
5.532,-0.362000,1.029000,0.123000,-15.405000,-40.267000,39.046000,28.480000
5.542,-0.267000,0.994000,0.125000,-13.053000,-41.794000,35.366000,28.480000
5.555,-0.187000,1.011000,0.154000,-8.733000,-30.649000,30.397000,28.390000
5.561,-0.155000,0.966000,0.135000,-5.786000,-20.031000,24.725000,28.440000
5.575,-0.181000,0.960000,0.138000,2.107000,-8.328000,23.221000,28.440000
5.581,-0.300000,1.005000,0.213000,1.214000,-11.870000,20.969000,28.480000
5.594,-0.227000,1.033000,0.174000,3.855000,-15.076000,16.885000,28.480000
5.600,-0.233000,1.020000,0.189000,2.496000,-24.450000,14.901000,28.390000
5.613,-0.195000,0.986000,0.207000,7.397000,-32.260000,18.450000,28.440000
5.625,-0.165000,0.988000,0.266000,10.206000,-27.611000,20.305000,28.440000
5.632,-0.163000,0.975000,0.314000,9.817000,-15.611000,20.000000,28.390000
5.644,-0.215000,0.986000,0.341000,10.702000,-0.710000,17.924000,28.390000
5.651,-0.276000,1.038000,0.355000,7.511000,15.389000,10.855000,28.530000
5.664,-0.407000,1.072000,0.343000,-3.084000,17.420000,1.611000,28.440000
5.671,-0.473000,1.045000,0.316000,-11.107000,12.550000,-9.695000,28.530000
5.684,-0.481000,1.031000,0.314000,-17.153000,3.275000,-22.137000,28.480000
5.690,-0.394000,1.007000,0.320000,-19.962000,-2.687000,-33.221000,28.390000
5.702,-0.259000,0.958000,0.321000,-22.282000,1.344000,-41.443000,28.480000
5.714,-0.167000,0.987000,0.333000,-20.809000,14.664000,-47.305000,28.440000
5.722,-0.092000,0.994000,0.291000,-19.122000,25.985000,-51.351000,28.480000
5.734,-0.094000,0.971000,0.250000,-19.458000,31.931000,-56.321000,28.480000
5.740,-0.088000,0.942000,0.208000,-22.160000,30.580000,-58.710000,28.390000
5.752,-0.068000,0.902000,0.169000,-14.710000,22.183000,-56.527000,28.440000
5.764,-0.020000,0.869000,0.157000,-7.015000,12.802000,-48.733000,28.530000
5.773,0.020000,0.885000,0.163000,-1.763000,8.061000,-34.611000,28.480000
5.784,0.006000,0.887000,0.187000,1.725000,6.450000,-16.267000,28.480000
5.792,-0.057000,0.878000,0.204000,0.008000,0.550000,0.374000,28.480000
5.804,-0.147000,0.905000,0.210000,-3.282000,-3.618000,11.511000,28.440000
5.811,-0.204000,0.943000,0.198000,-7.206000,-9.832000,14.939000,28.440000
5.824,-0.252000,0.940000,0.233000,-8.389000,-15.496000,10.534000,28.580000
5.830,-0.249000,0.942000,0.235000,-11.176000,-17.985000,3.015000,28.480000
5.842,-0.197000,0.915000,0.218000,-11.977000,-16.489000,-4.756000,28.530000
5.856,-0.120000,0.912000,0.219000,-12.038000,-7.008000,-8.779000,28.530000
5.861,-0.080000,0.908000,0.195000,-11.275000,3.275000,-7.557000,28.440000
5.875,-0.087000,0.903000,0.158000,-9.992000,13.328000,-7.130000,28.480000
5.881,-0.103000,0.907000,0.155000,-8.252000,17.267000,-4.832000,28.480000
5.893,-0.140000,0.921000,0.147000,-8.374000,15.924000,-2.580000,28.390000
5.900,-0.137000,0.934000,0.139000,-8.595000,13.130000,-0.084000,28.440000
5.912,-0.146000,0.937000,0.136000,-9.252000,10.756000,2.336000,28.480000
5.925,-0.145000,0.931000,0.128000,-10.519000,9.557000,3.603000,28.480000
5.933,-0.130000,0.910000,0.120000,-8.221000,10.237000,4.321000,28.580000
5.944,-0.142000,0.918000,0.132000,-4.443000,15.267000,5.534000,28.530000
5.951,-0.167000,0.943000,0.131000,-2.237000,17.496000,3.824000,28.530000
5.964,-0.148000,0.937000,0.158000,-0.084000,20.328000,-0.290000,28.480000
5.971,-0.142000,0.927000,0.166000,1.481000,21.153000,-1.733000,28.390000
5.983,-0.149000,0.924000,0.149000,3.290000,19.580000,-0.573000,28.530000
5.992,-0.164000,0.919000,0.158000,4.748000,18.137000,2.931000,28.440000
6.003,-0.199000,0.925000,0.172000,5.214000,13.771000,8.198000,28.440000
6.010,-0.218000,0.932000,0.163000,3.084000,7.725000,10.885000,28.390000
6.023,-0.235000,0.926000,0.188000,5.527000,2.878000,11.092000,28.480000
6.035,-0.254000,0.946000,0.175000,5.992000,-2.366000,8.748000,28.340000
6.043,-0.252000,0.934000,0.203000,6.542000,-7.817000,3.771000,28.530000
6.055,-0.216000,0.935000,0.219000,8.260000,-11.275000,-0.290000,28.480000
6.061,-0.183000,0.940000,0.258000,9.038000,-13.855000,-1.748000,28.480000
6.075,-0.160000,0.926000,0.267000,9.191000,-15.481000,1.947000,28.480000
6.082,-0.143000,0.954000,0.287000,8.237000,-15.672000,6.985000,28.480000
6.093,-0.166000,0.956000,0.286000,5.962000,-17.382000,12.099000,28.530000
6.100,-0.172000,0.952000,0.292000,4.137000,-16.969000,14.855000,28.480000
6.113,-0.183000,0.956000,0.308000,3.763000,-12.901000,14.344000,28.480000
6.125,-0.185000,0.964000,0.312000,3.107000,-10.260000,12.542000,28.440000
6.134,-0.188000,0.980000,0.310000,2.382000,-6.260000,9.679000,28.530000
6.145,-0.191000,0.983000,0.316000,0.435000,-3.931000,7.718000,28.440000
6.152,-0.190000,0.971000,0.304000,-0.756000,-2.382000,6.931000,28.480000
6.164,-0.209000,0.968000,0.290000,-2.351000,-2.611000,7.137000,28.580000
6.172,-0.229000,0.966000,0.288000,-3.802000,-5.748000,7.847000,28.440000
6.184,-0.238000,0.966000,0.289000,-4.344000,-11.229000,8.023000,28.440000
6.192,-0.255000,0.958000,0.290000,-4.336000,-16.496000,7.611000,28.530000
6.203,-0.238000,0.971000,0.296000,-5.916000,-20.817000,5.405000,28.580000
6.210,-0.178000,0.948000,0.294000,-4.947000,-19.527000,2.511000,28.390000
6.223,-0.123000,0.944000,0.313000,-0.427000,-14.397000,2.916000,28.530000
6.235,-0.115000,0.958000,0.333000,-0.939000,-6.977000,4.122000,28.440000
6.242,-0.209000,0.971000,0.374000,-4.420000,-8.641000,4.992000,28.580000
6.254,-0.170000,0.975000,0.332000,-5.656000,-2.412000,8.130000,28.480000
6.261,-0.189000,0.981000,0.320000,-9.145000,-5.328000,8.733000,28.480000
6.274,-0.208000,0.982000,0.297000,-12.359000,-8.168000,9.183000,28.390000
6.281,-0.215000,0.964000,0.292000,-14.695000,-11.679000,7.817000,28.440000
6.293,-0.192000,0.960000,0.288000,-15.649000,-11.687000,4.954000,28.390000
6.305,-0.173000,0.952000,0.283000,-15.435000,-10.954000,3.137000,28.480000
6.312,-0.166000,0.951000,0.280000,-14.069000,-9.985000,1.275000,28.480000
6.325,-0.169000,0.946000,0.265000,-14.076000,-9.672000,-0.115000,28.440000
6.332,-0.157000,0.934000,0.258000,-13.611000,-9.466000,-0.107000,28.440000
6.343,-0.154000,0.937000,0.265000,-13.450000,-8.702000,1.076000,28.480000
6.350,-0.142000,0.935000,0.265000,-13.939000,-5.489000,3.901000,28.480000
6.363,-0.167000,0.925000,0.264000,-14.710000,-6.389000,4.832000,28.530000
6.371,-0.171000,0.937000,0.249000,-16.786000,-7.313000,4.710000,28.440000
6.383,-0.193000,0.929000,0.253000,-18.252000,-11.634000,4.427000,28.580000
6.394,-0.199000,0.919000,0.240000,-17.733000,-18.603000,2.962000,28.480000
6.401,-0.213000,0.923000,0.215000,-18.374000,-26.748000,2.466000,28.480000
6.413,-0.225000,0.929000,0.228000,-19.069000,-37.313000,2.672000,28.440000
6.421,-0.257000,0.946000,0.221000,-21.427000,-52.595000,3.412000,28.440000
6.433,-0.288000,0.961000,0.218000,-24.481000,-72.344000,3.229000,28.480000
6.445,-0.317000,0.998000,0.226000,-30.389000,-97.496000,2.664000,28.480000
6.452,-0.360000,0.999000,0.198000,-38.489000,-130.939000,1.931000,28.480000
6.464,-0.275000,0.918000,0.150000,-39.924000,-156.809000,-2.176000,28.580000
6.471,0.068000,0.873000,0.200000,-32.137000,-142.618000,-3.779000,28.440000
6.484,0.191000,0.854000,0.279000,-20.137000,-110.275000,1.908000,28.480000
6.490,0.202000,0.790000,0.306000,-6.450000,-68.718000,5.733000,28.480000
6.502,0.141000,0.850000,0.331000,3.748000,-25.214000,6.847000,28.530000
6.508,0.024000,0.891000,0.351000,10.649000,4.099000,3.198000,28.530000
6.523,-0.088000,0.930000,0.362000,10.489000,16.122000,-1.076000,28.530000
6.534,-0.141000,0.948000,0.343000,6.252000,16.099000,-3.908000,28.480000
6.542,-0.151000,0.945000,0.337000,0.351000,10.901000,-4.779000,28.480000
6.554,-0.134000,0.920000,0.319000,-3.588000,2.832000,-1.992000,28.530000
6.561,-0.144000,0.898000,0.296000,-5.053000,-5.832000,1.908000,28.440000
6.574,-0.151000,0.894000,0.287000,-5.183000,-12.924000,3.847000,28.480000
6.581,-0.115000,0.906000,0.291000,-1.885000,-15.870000,3.336000,28.480000
6.594,-0.111000,0.928000,0.317000,0.031000,-16.183000,1.687000,28.480000
6.600,-0.118000,0.930000,0.317000,0.992000,-16.519000,-0.641000,28.530000
6.612,-0.102000,0.924000,0.326000,2.237000,-15.954000,-3.313000,28.440000
6.624,-0.082000,0.926000,0.339000,2.756000,-13.382000,-3.794000,28.480000
6.632,-0.069000,0.929000,0.354000,2.336000,-11.656000,-2.618000,28.580000
6.644,-0.056000,0.930000,0.363000,0.748000,-9.290000,-0.359000,28.480000
6.651,-0.051000,0.926000,0.360000,0.405000,-5.656000,1.992000,28.530000
6.664,-0.042000,0.928000,0.371000,0.718000,-1.000000,3.046000,28.440000
6.671,-0.070000,0.928000,0.354000,-0.115000,0.924000,4.038000,28.480000
6.683,-0.094000,0.922000,0.348000,-0.534000,1.435000,4.267000,28.480000
6.691,-0.147000,0.935000,0.336000,-2.412000,-2.229000,3.977000,28.530000
6.703,-0.197000,0.961000,0.345000,-7.214000,-11.656000,3.504000,28.620000
6.715,-0.201000,0.968000,0.334000,-12.389000,-23.168000,2.344000,28.530000
6.723,-0.200000,0.965000,0.335000,-15.962000,-38.496000,0.412000,28.480000
6.735,-0.122000,0.962000,0.323000,-17.298000,-45.969000,-0.061000,28.480000
6.741,-0.067000,0.934000,0.360000,-17.481000,-45.924000,-0.458000,28.620000
6.753,0.021000,0.914000,0.355000,-13.947000,-38.779000,-3.191000,28.530000
6.760,0.011000,0.919000,0.364000,-11.061000,-27.221000,-1.664000,28.440000
6.773,-0.020000,0.879000,0.346000,-7.779000,-20.435000,-2.366000,28.480000
6.784,-0.054000,0.877000,0.333000,-1.702000,-16.664000,-1.435000,28.480000
6.792,-0.086000,0.880000,0.337000,0.840000,-17.382000,-1.267000,28.620000
6.804,-0.076000,0.886000,0.346000,2.588000,-19.160000,-0.710000,28.530000
6.811,-0.069000,0.899000,0.363000,2.176000,-20.962000,0.496000,28.530000
6.825,-0.058000,0.896000,0.369000,1.748000,-22.496000,1.458000,28.480000
6.831,-0.052000,0.897000,0.380000,1.992000,-22.550000,3.061000,28.480000
6.843,-0.039000,0.904000,0.396000,2.176000,-19.496000,4.099000,28.480000
6.850,-0.017000,0.920000,0.402000,0.908000,-12.939000,5.916000,28.440000
6.862,-0.035000,0.919000,0.409000,-0.069000,-6.565000,7.244000,28.580000
6.875,-0.051000,0.933000,0.407000,-0.443000,-0.198000,7.336000,28.480000
6.883,-0.060000,0.933000,0.405000,-1.153000,3.450000,6.450000,28.480000
6.894,-0.085000,0.928000,0.389000,-2.084000,4.649000,6.336000,28.530000
6.902,-0.095000,0.928000,0.369000,-2.748000,3.969000,5.924000,28.530000
6.914,-0.099000,0.911000,0.365000,-2.695000,2.229000,5.634000,28.580000
6.921,-0.109000,0.904000,0.362000,-2.481000,0.603000,5.466000,28.480000
6.935,-0.109000,0.898000,0.361000,-1.084000,-1.023000,4.336000,28.580000
6.941,-0.109000,0.904000,0.368000,-0.084000,-2.489000,2.931000,28.530000
6.953,-0.115000,0.900000,0.373000,0.840000,-3.183000,1.420000,28.440000
6.960,-0.109000,0.916000,0.391000,0.565000,-4.267000,-0.053000,28.580000
6.973,-0.084000,0.919000,0.411000,-0.771000,-4.229000,-0.962000,28.480000
6.985,-0.067000,0.937000,0.411000,-4.466000,-1.351000,-0.702000,28.480000
6.992,-0.059000,0.925000,0.408000,-8.015000,0.985000,-0.076000,28.530000
7.005,-0.059000,0.904000,0.392000,-8.740000,3.053000,0.649000,28.620000
7.012,-0.064000,0.898000,0.391000,-9.122000,4.832000,0.969000,28.480000
7.025,-0.068000,0.896000,0.370000,-8.710000,4.496000,1.168000,28.580000
7.032,-0.081000,0.897000,0.382000,-7.038000,3.466000,1.168000,28.580000
7.044,-0.082000,0.894000,0.363000,-6.252000,0.756000,1.267000,28.620000
7.051,-0.080000,0.896000,0.357000,-4.473000,-1.901000,2.198000,28.530000
7.063,-0.083000,0.899000,0.347000,-2.771000,-4.168000,2.702000,28.580000
7.071,-0.088000,0.905000,0.344000,-1.481000,-5.992000,2.389000,28.390000
7.083,-0.096000,0.915000,0.338000,-1.099000,-5.992000,1.870000,28.530000
7.090,-0.086000,0.920000,0.356000,-1.008000,-4.344000,0.260000,28.530000
7.102,-0.079000,0.925000,0.354000,-1.534000,-3.099000,-0.977000,28.620000
7.115,-0.075000,0.922000,0.350000,-2.580000,-1.878000,-2.122000,28.480000
7.123,-0.072000,0.924000,0.342000,-3.557000,-0.031000,-1.977000,28.580000
7.134,-0.077000,0.913000,0.334000,-3.275000,-0.718000,-1.427000,28.440000
7.141,-0.081000,0.912000,0.324000,-2.733000,-1.015000,-1.015000,28.530000
7.153,-0.086000,0.902000,0.329000,-1.725000,-2.237000,-1.015000,28.580000
7.160,-0.092000,0.898000,0.329000,-0.573000,-4.008000,-1.634000,28.580000
7.173,-0.078000,0.911000,0.347000,0.908000,-3.557000,-2.939000,28.580000
7.181,-0.044000,0.932000,0.368000,1.237000,-1.053000,-3.824000,28.620000
7.193,-0.036000,0.916000,0.371000,0.229000,0.947000,-4.107000,28.620000
7.205,-0.036000,0.920000,0.370000,-0.603000,2.588000,-2.870000,28.480000
7.212,-0.045000,0.908000,0.371000,-1.229000,2.962000,-1.099000,28.480000
7.225,-0.068000,0.917000,0.359000,-1.832000,0.748000,0.779000,28.480000
7.232,-0.093000,0.914000,0.346000,-1.229000,-2.458000,1.389000,28.480000
7.244,-0.107000,0.918000,0.354000,-0.855000,-5.229000,0.137000,28.530000
7.251,-0.100000,0.904000,0.347000,-0.145000,-7.023000,-2.053000,28.480000
7.263,-0.080000,0.904000,0.354000,0.893000,-6.099000,-3.603000,28.580000
7.271,-0.075000,0.895000,0.356000,2.702000,-3.832000,-5.519000,28.620000
7.284,-0.079000,0.897000,0.377000,2.878000,-2.008000,-6.427000,28.530000
7.291,-0.076000,0.899000,0.374000,2.832000,-1.618000,-6.115000,28.530000
7.302,-0.077000,0.902000,0.391000,2.618000,-1.328000,-5.656000,28.580000
7.315,-0.086000,0.899000,0.393000,0.863000,-2.389000,-5.397000,28.480000
7.322,-0.090000,0.905000,0.382000,-0.214000,-3.489000,-5.275000,28.530000
7.334,-0.082000,0.911000,0.396000,-0.527000,-3.664000,-5.809000,28.530000
7.341,-0.083000,0.901000,0.402000,-0.687000,-3.878000,-6.427000,28.530000
7.353,-0.071000,0.908000,0.390000,0.267000,-3.611000,-6.893000,28.580000
7.360,-0.060000,0.915000,0.394000,1.023000,-1.695000,-7.336000,28.480000
7.375,-0.050000,0.923000,0.395000,0.695000,-0.053000,-7.412000,28.530000
7.381,-0.053000,0.918000,0.384000,0.076000,1.885000,-6.107000,28.530000
7.393,-0.059000,0.918000,0.389000,-0.794000,2.366000,-4.908000,28.530000
7.405,-0.067000,0.926000,0.404000,-1.412000,2.229000,-3.573000,28.480000
7.412,-0.083000,0.924000,0.401000,-2.206000,0.916000,-3.084000,28.480000
7.425,-0.091000,0.914000,0.391000,-1.672000,0.427000,-3.725000,28.480000
7.431,-0.091000,0.904000,0.383000,-1.435000,0.053000,-4.573000,28.620000
7.444,-0.093000,0.905000,0.381000,-1.092000,-1.298000,-5.649000,28.530000
7.451,-0.089000,0.901000,0.388000,-0.221000,-1.687000,-6.611000,28.480000
7.463,-0.087000,0.901000,0.384000,0.824000,-2.527000,-7.076000,28.580000
7.471,-0.075000,0.906000,0.398000,0.809000,-2.359000,-7.435000,28.530000
7.483,-0.054000,0.910000,0.397000,0.290000,-1.183000,-6.443000,28.530000
7.490,-0.051000,0.905000,0.405000,-1.557000,1.427000,-5.374000,28.580000
7.517,-0.053000,0.897000,0.406000,-3.015000,1.954000,-3.710000,28.480000
7.517,-0.070000,0.892000,0.378000,-3.756000,1.214000,-1.985000,28.580000
