time_sec,ax,ay,az,gx,gy,gz,temp_c
0.013,-0.505000,1.018000,0.473000,-4.069000,16.740000,29.298000,28.670000
0.019,-0.514000,1.049000,0.485000,-13.405000,21.435000,26.351000,28.670000
0.025,-0.486000,0.970000,0.455000,-5.412000,19.916000,33.427000,28.770000
0.038,-0.481000,0.976000,0.412000,-3.641000,26.542000,32.015000,28.620000
0.045,-0.483000,0.959000,0.406000,-1.992000,34.611000,33.832000,28.770000
0.057,-0.506000,0.962000,0.405000,4.198000,38.824000,33.840000,28.670000
0.070,-0.514000,0.975000,0.405000,9.504000,41.458000,31.191000,28.720000
0.080,-0.526000,0.978000,0.411000,11.473000,41.198000,30.046000,28.620000
0.090,-0.523000,0.999000,0.413000,11.000000,37.374000,31.389000,28.670000
0.098,-0.512000,1.013000,0.414000,10.756000,34.992000,32.198000,28.580000
0.109,-0.497000,1.009000,0.411000,9.687000,35.992000,33.328000,28.670000
0.116,-0.520000,1.018000,0.394000,7.015000,39.366000,28.252000,28.620000
0.128,-0.532000,1.020000,0.401000,4.931000,42.603000,19.901000,28.720000
0.135,-0.573000,1.026000,0.390000,6.290000,43.267000,12.000000,28.670000
0.148,-0.578000,1.019000,0.398000,5.496000,42.664000,3.443000,28.670000
0.155,-0.578000,1.099000,0.419000,4.534000,40.420000,-2.496000,28.620000
0.167,-0.564000,1.120000,0.421000,4.580000,33.176000,-7.069000,28.720000
0.180,-0.545000,1.094000,0.401000,2.786000,25.534000,-8.748000,28.670000
0.187,-0.499000,1.075000,0.395000,-1.069000,17.252000,-6.496000,28.670000
0.199,-0.475000,1.036000,0.364000,-3.527000,7.061000,-3.092000,28.670000
0.206,-0.423000,1.008000,0.335000,-5.977000,3.924000,0.947000,28.720000
0.219,-0.395000,0.979000,0.320000,-8.008000,3.038000,0.565000,28.770000
0.228,-0.373000,0.959000,0.312000,-9.420000,2.267000,0.672000,28.670000
0.239,-0.367000,0.940000,0.326000,-10.412000,6.237000,1.626000,28.670000
0.245,-0.353000,0.936000,0.318000,-11.931000,9.092000,2.748000,28.720000
0.258,-0.362000,0.913000,0.315000,-11.695000,10.321000,3.992000,28.620000
0.265,-0.355000,0.904000,0.312000,-10.817000,7.679000,5.695000,28.670000
0.279,-0.340000,0.897000,0.294000,-9.069000,6.221000,7.130000,28.770000
0.290,-0.294000,0.906000,0.301000,-6.069000,8.076000,10.214000,28.720000
0.297,-0.271000,0.912000,0.301000,-4.351000,10.344000,14.916000,28.620000
0.309,-0.263000,0.913000,0.293000,-3.679000,15.389000,20.321000,28.670000
0.316,-0.272000,0.917000,0.300000,-5.344000,21.427000,25.641000,28.670000
0.329,-0.309000,0.910000,0.282000,-4.656000,24.794000,27.626000,28.620000
0.338,-0.325000,0.874000,0.274000,-4.519000,26.992000,28.847000,28.720000
0.348,-0.346000,0.839000,0.261000,-4.573000,28.282000,30.641000,28.670000
0.353,-0.366000,0.817000,0.247000,-3.779000,26.527000,31.534000,28.670000
0.367,-0.365000,0.797000,0.250000,-2.595000,24.122000,30.679000,28.670000
0.379,-0.354000,0.787000,0.247000,-2.954000,22.023000,32.198000,28.720000
0.387,-0.347000,0.789000,0.252000,-2.649000,18.412000,33.824000,28.620000
0.399,-0.336000,0.780000,0.261000,-2.748000,15.901000,36.229000,28.770000
0.405,-0.313000,0.780000,0.252000,-3.168000,15.038000,38.626000,28.670000
0.418,-0.310000,0.764000,0.254000,-2.084000,13.626000,39.786000,28.720000
0.425,-0.295000,0.787000,0.254000,-1.198000,12.618000,42.008000,28.620000
0.439,-0.305000,0.787000,0.249000,0.046000,12.405000,42.031000,28.670000
0.450,-0.304000,0.800000,0.250000,0.916000,12.908000,40.031000,28.670000
0.457,-0.303000,0.813000,0.234000,-0.160000,15.588000,39.496000,28.620000
0.469,-0.317000,0.808000,0.229000,1.450000,16.183000,40.275000,28.720000
0.478,-0.344000,0.786000,0.222000,2.672000,16.023000,39.847000,28.620000
0.489,-0.358000,0.773000,0.225000,3.076000,16.969000,38.573000,28.670000
0.496,-0.365000,0.788000,0.236000,3.573000,17.481000,36.969000,28.670000
0.508,-0.388000,0.789000,0.254000,4.336000,19.168000,34.443000,28.720000
0.515,-0.411000,0.798000,0.265000,4.176000,21.122000,29.397000,28.720000
0.530,-0.416000,0.801000,0.276000,1.359000,24.298000,25.107000,28.670000
0.536,-0.438000,0.782000,0.286000,0.450000,26.855000,19.832000,28.770000
0.548,-0.447000,0.767000,0.268000,1.176000,29.023000,14.939000,28.580000
0.560,-0.458000,0.759000,0.271000,3.443000,28.092000,7.695000,28.620000
0.567,-0.478000,0.742000,0.261000,3.840000,24.481000,2.458000,28.770000
0.580,-0.459000,0.743000,0.275000,4.237000,18.153000,-0.779000,28.670000
0.587,-0.468000,0.760000,0.274000,5.115000,12.740000,-3.893000,28.670000
0.599,-0.460000,0.758000,0.280000,4.588000,7.840000,-7.313000,28.720000
0.606,-0.458000,0.738000,0.271000,3.145000,5.145000,-12.649000,28.720000
0.618,-0.435000,0.709000,0.252000,2.168000,2.908000,-19.634000,28.670000
0.628,-0.413000,0.690000,0.252000,4.679000,3.321000,-23.992000,28.670000
0.638,-0.395000,0.724000,0.268000,6.847000,6.336000,-25.489000,28.720000
0.645,-0.410000,0.762000,0.301000,5.832000,10.328000,-24.229000,28.720000
0.657,-0.429000,0.783000,0.320000,4.366000,13.435000,-25.206000,28.670000
0.670,-0.452000,0.784000,0.347000,2.954000,14.779000,-28.611000,28.770000
0.680,-0.468000,0.778000,0.345000,0.244000,13.740000,-34.985000,28.620000
0.689,-0.456000,0.775000,0.329000,-4.183000,12.649000,-41.046000,28.620000
0.697,-0.431000,0.771000,0.295000,-6.244000,10.153000,-43.718000,28.620000
0.708,-0.409000,0.782000,0.264000,-8.267000,6.977000,-42.603000,28.580000
0.715,-0.405000,0.755000,0.235000,-6.290000,2.496000,-41.756000,28.670000
0.728,-0.412000,0.778000,0.230000,-3.824000,-0.626000,-37.893000,28.670000
0.740,-0.398000,0.807000,0.238000,-1.000000,-0.771000,-34.641000,28.620000
0.747,-0.396000,0.832000,0.244000,1.588000,2.557000,-32.496000,28.770000
0.759,-0.410000,0.883000,0.243000,3.863000,7.527000,-30.252000,28.670000
0.766,-0.454000,0.896000,0.247000,3.061000,12.328000,-27.893000,28.720000
0.779,-0.511000,0.901000,0.253000,2.389000,12.221000,-29.565000,28.620000
0.788,-0.533000,0.893000,0.271000,1.489000,8.176000,-34.740000,28.770000
0.798,-0.537000,0.897000,0.270000,1.122000,3.550000,-45.275000,28.770000
0.805,-0.499000,0.921000,0.292000,-1.763000,0.740000,-52.786000,28.720000
0.817,-0.451000,0.885000,0.298000,-4.550000,-0.924000,-57.435000,28.620000
0.830,-0.411000,0.890000,0.293000,-7.969000,1.191000,-56.565000,28.620000
0.836,-0.400000,0.894000,0.287000,-11.527000,3.221000,-53.679000,28.670000
0.849,-0.379000,0.859000,0.261000,-9.809000,5.649000,-51.382000,28.860000
0.856,-0.391000,0.861000,0.236000,-9.244000,9.695000,-46.023000,28.720000
0.868,-0.428000,0.819000,0.216000,-7.282000,11.504000,-43.183000,28.620000
0.875,-0.453000,0.801000,0.192000,-3.000000,12.008000,-40.634000,28.670000
0.887,-0.490000,0.792000,0.191000,-0.626000,11.458000,-37.649000,28.580000
0.900,-0.506000,0.778000,0.188000,0.870000,12.137000,-38.695000,28.770000
0.907,-0.511000,0.789000,0.202000,0.847000,13.763000,-40.672000,28.720000
0.919,-0.520000,0.793000,0.215000,0.420000,14.176000,-43.023000,28.720000
0.928,-0.504000,0.804000,0.213000,1.412000,16.893000,-45.176000,28.580000
0.938,-0.506000,0.846000,0.218000,1.389000,21.916000,-44.076000,28.670000
0.946,-0.531000,0.827000,0.222000,2.221000,26.893000,-42.611000,28.620000
0.958,-0.558000,0.850000,0.213000,3.450000,30.427000,-40.901000,28.720000
0.970,-0.628000,0.816000,0.208000,2.160000,30.015000,-43.191000,28.670000
0.977,-0.672000,0.768000,0.200000,1.893000,25.840000,-48.557000,28.580000
0.990,-0.670000,0.743000,0.163000,-2.229000,20.359000,-61.084000,28.720000
0.996,-0.681000,0.691000,0.161000,6.527000,11.023000,-58.275000,28.720000
1.008,-0.680000,0.703000,0.169000,13.084000,5.550000,-58.511000,28.620000
1.015,-0.682000,0.716000,0.189000,14.176000,2.824000,-58.115000,28.670000
1.029,-0.683000,0.736000,0.207000,15.786000,0.359000,-61.153000,28.670000
1.034,-0.664000,0.734000,0.222000,13.847000,-2.924000,-67.275000,28.720000
1.047,-0.623000,0.717000,0.223000,12.901000,-3.786000,-72.542000,28.620000
1.059,-0.544000,0.737000,0.216000,15.702000,-1.656000,-73.336000,28.670000
1.066,-0.521000,0.741000,0.225000,18.168000,5.855000,-66.771000,28.770000
1.078,-0.555000,0.754000,0.226000,20.817000,14.924000,-58.099000,28.670000
1.086,-0.638000,0.741000,0.240000,23.481000,18.031000,-52.687000,28.720000
1.098,-0.693000,0.748000,0.261000,23.244000,21.664000,-54.366000,28.720000
1.110,-0.734000,0.740000,0.276000,15.901000,19.557000,-58.916000,28.770000
1.117,-0.728000,0.719000,0.265000,10.550000,15.382000,-66.511000,28.670000
1.129,-0.692000,0.733000,0.244000,6.160000,11.481000,-68.198000,28.720000
1.138,-0.674000,0.727000,0.230000,3.748000,8.771000,-65.122000,28.720000
1.149,-0.669000,0.722000,0.198000,5.168000,8.229000,-58.962000,28.670000
1.155,-0.698000,0.733000,0.210000,7.870000,9.931000,-50.786000,28.580000
1.168,-0.756000,0.705000,0.206000,10.321000,11.115000,-47.809000,28.620000
1.175,-0.766000,0.703000,0.192000,11.824000,12.405000,-48.160000,28.720000
1.188,-0.801000,0.685000,0.206000,9.672000,7.794000,-51.832000,28.670000
1.200,-0.771000,0.653000,0.188000,7.130000,5.611000,-59.282000,28.670000
1.207,-0.712000,0.659000,0.169000,4.458000,4.565000,-62.420000,28.620000
1.219,-0.667000,0.638000,0.167000,4.336000,5.580000,-59.618000,28.720000
1.228,-0.652000,0.604000,0.154000,7.763000,10.145000,-53.466000,28.720000
1.238,-0.672000,0.637000,0.169000,11.466000,15.351000,-45.023000,28.670000
1.245,-0.722000,0.609000,0.188000,14.641000,17.878000,-40.679000,28.670000
1.258,-0.744000,0.600000,0.205000,16.061000,19.794000,-41.870000,28.670000
1.270,-0.777000,0.582000,0.228000,14.481000,17.435000,-42.603000,28.720000
1.279,-0.777000,0.573000,0.228000,12.328000,14.496000,-47.878000,28.670000
1.289,-0.739000,0.587000,0.202000,9.885000,13.656000,-50.687000,28.770000
1.296,-0.727000,0.571000,0.186000,7.893000,12.786000,-49.679000,28.770000
1.308,-0.731000,0.579000,0.157000,7.435000,13.344000,-48.237000,28.720000
1.315,-0.733000,0.600000,0.154000,6.244000,17.557000,-43.290000,28.720000
1.329,-0.775000,0.581000,0.149000,5.573000,19.389000,-39.214000,28.770000
1.337,-0.823000,0.559000,0.139000,4.053000,16.389000,-40.656000,28.670000
1.348,-0.820000,0.545000,0.124000,1.092000,12.084000,-45.183000,28.720000
1.359,-0.789000,0.528000,0.101000,-0.183000,8.076000,-47.527000,28.620000
1.367,-0.755000,0.519000,0.093000,0.328000,4.992000,-45.069000,28.670000
1.379,-0.740000,0.498000,0.085000,3.252000,4.878000,-41.481000,28.770000
1.388,-0.740000,0.509000,0.078000,8.053000,6.122000,-35.779000,28.720000
1.399,-0.751000,0.510000,0.100000,12.649000,10.603000,-32.160000,28.620000
1.405,-0.766000,0.510000,0.100000,13.122000,16.939000,-31.473000,28.770000
1.417,-0.781000,0.519000,0.112000,10.786000,21.565000,-32.603000,28.770000
1.430,-0.814000,0.534000,0.097000,9.710000,22.618000,-34.626000,28.670000
1.438,-0.820000,0.526000,0.071000,11.977000,22.954000,-36.679000,28.720000
1.449,-0.858000,0.522000,0.047000,12.397000,20.634000,-37.275000,28.720000
1.456,-0.876000,0.498000,0.029000,15.473000,18.221000,-37.710000,28.670000
1.468,-0.890000,0.501000,0.022000,21.504000,16.519000,-36.885000,28.670000
1.475,-0.914000,0.488000,0.036000,26.855000,14.389000,-36.679000,28.720000
1.491,-0.911000,0.520000,0.068000,30.664000,11.672000,-35.947000,28.720000
1.500,-0.935000,0.545000,0.098000,31.229000,7.298000,-34.489000,28.670000
1.507,-0.940000,0.540000,0.127000,27.908000,1.008000,-37.107000,28.770000
1.519,-0.906000,0.508000,0.114000,22.260000,-3.725000,-41.344000,28.720000
1.527,-0.855000,0.490000,0.104000,18.168000,-5.565000,-42.504000,28.720000
1.539,-0.807000,0.468000,0.086000,18.000000,-3.992000,-41.000000,28.670000
1.546,-0.798000,0.457000,0.064000,21.130000,-1.115000,-36.718000,28.670000
1.557,-0.813000,0.459000,0.069000,27.015000,2.244000,-31.321000,28.670000
1.570,-0.859000,0.480000,0.103000,30.931000,5.298000,-24.473000,28.720000
1.577,-0.915000,0.502000,0.124000,31.710000,5.611000,-18.977000,28.620000
1.589,-0.968000,0.507000,0.152000,27.916000,3.069000,-18.687000,28.670000
1.596,-0.994000,0.454000,0.148000,21.458000,-0.420000,-27.183000,28.580000
1.608,-0.963000,0.409000,0.141000,14.977000,-3.626000,-36.099000,28.770000
1.615,-0.899000,0.390000,0.099000,10.817000,-3.008000,-40.855000,28.720000
1.629,-0.857000,0.385000,0.073000,11.023000,-1.290000,-39.168000,28.770000
1.640,-0.856000,0.441000,0.050000,14.580000,1.985000,-28.733000,28.670000
1.647,-0.947000,0.459000,0.059000,18.229000,3.740000,-18.046000,28.720000
1.659,-1.031000,0.505000,0.081000,18.443000,1.542000,-9.687000,28.810000
1.666,-1.131000,0.471000,0.110000,14.679000,-5.542000,-9.870000,28.770000
1.680,-1.166000,0.417000,0.097000,10.985000,-13.809000,-21.344000,28.670000
1.686,-1.155000,0.366000,0.082000,6.794000,-23.779000,-35.947000,28.720000
1.697,-1.063000,0.332000,0.055000,6.038000,-30.450000,-51.763000,28.720000
1.710,-0.920000,0.333000,0.048000,6.786000,-33.458000,-58.313000,28.720000
1.716,-0.812000,0.333000,0.051000,11.031000,-28.389000,-58.023000,28.580000
1.730,-0.738000,0.338000,0.056000,19.198000,-16.580000,-52.496000,28.670000
1.737,-0.748000,0.370000,0.077000,24.000000,-4.038000,-42.336000,28.720000
1.748,-0.831000,0.396000,0.097000,26.878000,4.130000,-32.931000,28.720000
1.755,-0.966000,0.352000,0.121000,25.550000,1.924000,-33.435000,28.670000
1.767,-0.986000,0.289000,0.134000,21.427000,-4.634000,-41.962000,28.770000
1.779,-0.942000,0.300000,0.135000,16.565000,-10.473000,-46.519000,28.770000
1.787,-0.864000,0.321000,0.146000,13.641000,-14.275000,-48.092000,28.720000
1.799,-0.778000,0.395000,0.146000,15.183000,-13.282000,-40.275000,28.580000
1.805,-0.797000,0.455000,0.168000,16.092000,-8.550000,-23.519000,28.670000
1.817,-0.906000,0.391000,0.185000,14.626000,-3.809000,-16.824000,28.720000
1.830,-0.974000,0.357000,0.189000,10.420000,-0.679000,-18.496000,28.720000
1.838,-0.994000,0.308000,0.167000,5.084000,0.573000,-26.168000,28.720000
1.849,-0.913000,0.288000,0.110000,2.863000,7.725000,-37.885000,28.670000
1.856,-0.830000,0.277000,0.035000,4.282000,20.962000,-41.214000,28.670000
1.868,-0.818000,0.260000,-0.032000,9.786000,35.847000,-38.977000,28.810000
1.877,-0.850000,0.285000,-0.088000,19.527000,47.893000,-31.435000,28.720000
1.889,-0.977000,0.266000,-0.046000,28.740000,48.763000,-23.206000,28.670000
1.900,-1.051000,0.236000,0.001000,32.466000,41.511000,-14.580000,28.670000
1.907,-1.145000,0.270000,0.016000,32.046000,25.282000,-8.641000,28.720000
1.919,-1.187000,0.271000,0.067000,27.122000,2.786000,-8.160000,28.720000
1.928,-1.132000,0.280000,0.073000,20.809000,-17.145000,-12.290000,28.670000
1.939,-1.066000,0.271000,0.083000,14.626000,-30.977000,-18.061000,28.770000
1.945,-0.994000,0.260000,0.082000,11.366000,-36.809000,-22.985000,28.670000
1.957,-0.914000,0.272000,0.081000,9.649000,-37.450000,-22.053000,28.720000
1.969,-0.854000,0.263000,0.080000,10.649000,-30.687000,-20.015000,28.720000
1.978,-0.825000,0.254000,0.087000,15.023000,-16.573000,-19.802000,28.670000
1.989,-0.854000,0.259000,0.129000,16.206000,-4.702000,-21.382000,28.670000
1.997,-0.899000,0.192000,0.142000,13.817000,2.336000,-29.466000,28.620000
2.008,-0.888000,0.234000,0.155000,11.061000,5.260000,-31.855000,28.720000
2.015,-0.888000,0.243000,0.133000,6.099000,1.679000,-30.031000,28.670000
2.028,-0.857000,0.287000,0.123000,2.061000,0.221000,-21.557000,28.770000
2.040,-0.857000,0.330000,0.103000,-2.534000,1.321000,-5.595000,28.720000
2.047,-0.902000,0.338000,0.102000,-3.939000,3.443000,6.046000,28.720000
2.059,-0.980000,0.315000,0.084000,-1.893000,6.420000,11.000000,28.670000
2.066,-1.067000,0.248000,0.092000,0.740000,8.595000,-0.412000,28.670000
2.079,-1.102000,0.182000,0.091000,-1.695000,5.542000,-15.267000,28.720000
2.086,-1.076000,0.139000,0.075000,-3.557000,4.634000,-29.855000,28.720000
2.099,-0.974000,0.166000,0.063000,-6.443000,2.954000,-39.412000,28.670000
2.105,-0.884000,0.225000,0.040000,-4.916000,4.137000,-37.435000,28.670000
2.117,-0.855000,0.254000,0.018000,-0.481000,2.626000,-29.893000,28.670000
2.130,-0.858000,0.254000,0.008000,5.718000,11.115000,-23.183000,28.620000
2.139,-0.853000,0.323000,0.045000,13.466000,14.290000,-13.099000,28.720000
2.150,-0.945000,0.287000,0.083000,15.466000,18.656000,-10.412000,28.670000
2.156,-1.069000,0.234000,0.142000,11.611000,15.214000,-14.794000,28.770000
2.168,-1.139000,0.177000,0.198000,1.855000,0.221000,-18.374000,28.720000
2.177,-1.068000,0.048000,0.163000,-9.160000,-12.282000,-30.092000,28.720000
2.188,-0.909000,0.173000,0.147000,-19.000000,-21.573000,-27.573000,28.580000
2.199,-0.844000,0.121000,0.078000,-21.145000,-29.527000,-20.282000,28.670000
2.206,-0.745000,0.116000,0.020000,-13.542000,-22.191000,-9.702000,28.620000
2.218,-0.762000,0.216000,0.014000,-5.885000,-11.214000,6.885000,28.720000
2.228,-0.908000,0.189000,0.063000,-1.176000,1.397000,13.008000,28.670000
2.239,-1.068000,0.157000,0.109000,-5.252000,4.756000,8.977000,28.770000
2.247,-1.112000,0.135000,0.135000,-10.771000,4.252000,-3.702000,28.720000
2.257,-1.104000,0.166000,0.141000,-19.893000,3.389000,-15.519000,28.720000
2.269,-1.085000,0.221000,0.131000,-22.412000,-2.779000,-20.748000,28.720000
2.277,-1.047000,0.251000,0.095000,-22.221000,-7.130000,-21.863000,28.770000
2.289,-1.056000,0.266000,0.082000,-19.496000,-8.466000,-18.649000,28.670000
2.297,-1.092000,0.235000,0.084000,-17.618000,-8.137000,-18.855000,28.670000
2.308,-1.111000,0.211000,0.095000,-18.794000,1.702000,-26.076000,28.620000
2.320,-1.171000,0.141000,0.093000,-21.298000,3.427000,-38.542000,28.770000
2.328,-1.107000,0.051000,0.086000,-23.008000,7.282000,-58.405000,28.770000
2.339,-0.999000,0.093000,0.085000,-21.168000,8.809000,-65.702000,28.620000
2.347,-0.935000,0.096000,0.074000,-19.542000,5.038000,-66.282000,28.720000
2.358,-0.886000,0.102000,0.061000,-16.214000,3.855000,-60.985000,28.580000
2.365,-0.839000,0.184000,0.077000,-14.275000,2.748000,-46.580000,28.670000
2.378,-0.901000,0.146000,0.080000,-14.985000,2.893000,-40.809000,28.720000
2.390,-0.978000,0.012000,0.073000,-17.214000,3.771000,-43.992000,28.720000
2.397,-0.955000,0.029000,0.069000,-18.763000,0.695000,-44.145000,28.720000
2.409,-0.944000,-0.006000,0.034000,-17.420000,-0.840000,-48.588000,28.670000
2.415,-0.917000,0.033000,0.035000,-16.031000,-2.969000,-46.641000,28.670000
2.429,-0.931000,0.023000,0.003000,-11.847000,-7.053000,-43.763000,28.720000
2.440,-0.889000,0.042000,0.014000,-10.580000,-7.870000,-39.885000,28.720000
2.447,-0.891000,0.052000,0.011000,-8.115000,-3.809000,-34.412000,28.670000
2.459,-0.943000,0.008000,0.010000,-7.160000,0.733000,-33.374000,28.670000
2.466,-0.994000,-0.066000,-0.011000,-5.557000,4.366000,-36.824000,28.770000
2.479,-0.946000,-0.106000,-0.030000,-7.183000,13.252000,-42.985000,28.720000
2.490,-0.917000,-0.183000,-0.053000,-10.542000,24.374000,-50.092000,28.670000
2.497,-0.860000,-0.166000,-0.097000,-5.847000,31.534000,-49.740000,28.670000
2.509,-0.864000,-0.123000,-0.141000,2.008000,33.779000,-42.947000,28.720000
2.515,-0.895000,-0.120000,-0.162000,15.191000,27.786000,-36.374000,28.810000
2.530,-0.917000,-0.103000,-0.126000,28.573000,21.550000,-28.382000,28.770000
2.540,-0.929000,-0.022000,-0.064000,38.183000,14.672000,-23.641000,28.670000
2.547,-0.966000,-0.049000,0.052000,36.069000,11.725000,-25.511000,28.670000
2.559,-0.975000,-0.029000,0.122000,28.595000,7.557000,-32.382000,28.720000
2.566,-0.935000,-0.040000,0.146000,19.878000,2.359000,-36.397000,28.620000
2.579,-0.854000,-0.048000,0.129000,16.733000,-0.107000,-35.061000,28.670000
2.584,-0.813000,-0.060000,0.095000,17.305000,-0.565000,-27.519000,28.670000
2.598,-0.812000,-0.089000,0.076000,23.992000,4.206000,-22.427000,28.720000
2.609,-0.875000,-0.063000,0.119000,31.542000,5.588000,-15.466000,28.720000
2.616,-0.982000,-0.043000,0.167000,31.817000,4.702000,-16.092000,28.670000
2.629,-1.051000,-0.051000,0.204000,25.595000,1.702000,-21.076000,28.670000
2.636,-1.052000,-0.071000,0.226000,16.221000,-0.840000,-27.878000,28.670000
2.648,-0.943000,-0.069000,0.191000,4.740000,4.542000,-30.061000,28.720000
2.661,-0.938000,-0.045000,0.135000,0.443000,9.183000,-25.115000,28.770000
2.667,-1.001000,-0.061000,0.068000,1.328000,12.489000,-21.298000,28.770000
2.679,-1.096000,-0.095000,0.030000,5.908000,13.427000,-17.939000,28.670000
2.688,-1.182000,-0.094000,0.043000,9.298000,9.160000,-23.649000,28.810000
2.699,-1.154000,-0.074000,0.050000,7.534000,8.489000,-33.679000,28.720000
2.705,-1.131000,-0.088000,0.086000,3.099000,7.817000,-42.802000,28.670000
2.718,-1.030000,-0.108000,0.076000,0.794000,6.450000,-48.901000,28.770000
2.724,-0.975000,-0.114000,0.067000,0.840000,5.794000,-46.626000,28.620000
2.738,-1.019000,-0.160000,0.054000,2.687000,2.802000,-44.305000,28.720000
2.750,-1.029000,-0.210000,0.031000,3.947000,-0.374000,-47.427000,28.670000
2.756,-0.974000,-0.249000,0.033000,4.481000,-0.756000,-49.313000,28.670000
2.769,-0.901000,-0.256000,0.042000,5.351000,5.420000,-54.893000,28.720000
2.778,-0.866000,-0.260000,0.088000,6.527000,7.779000,-52.244000,28.720000
2.789,-0.864000,-0.234000,0.106000,8.115000,4.809000,-46.725000,28.770000
2.796,-0.904000,-0.157000,0.108000,-8.198000,1.008000,-40.893000,28.770000
2.807,-0.923000,-0.188000,0.012000,-21.176000,0.924000,-37.573000,28.670000
2.819,-0.957000,-0.225000,-0.155000,-34.840000,2.130000,-36.389000,28.720000
2.830,-0.919000,-0.288000,-0.314000,-31.618000,8.298000,-39.298000,28.720000
2.838,-0.913000,-0.393000,-0.355000,-10.496000,12.740000,-39.221000,28.770000
2.850,-0.868000,-0.399000,-0.284000,16.695000,21.641000,-44.145000,28.670000
2.857,-0.878000,-0.360000,-0.099000,47.992000,28.336000,-37.122000,28.720000
2.869,-0.924000,-0.186000,0.084000,49.351000,33.664000,-41.740000,28.720000
2.877,-0.934000,-0.071000,0.246000,37.969000,23.916000,-36.832000,28.670000
2.888,-0.926000,-0.089000,0.293000,15.153000,12.031000,-32.481000,28.770000
2.900,-0.901000,-0.109000,0.256000,-6.985000,-6.817000,-28.748000,28.720000
2.907,-0.786000,-0.286000,0.145000,-19.924000,-17.687000,-26.977000,28.720000
2.919,-0.641000,-0.436000,0.040000,-20.107000,-16.168000,-27.885000,28.670000
2.930,-0.449000,-0.430000,-0.030000,-8.092000,1.351000,-16.061000,28.670000
2.939,-0.433000,-0.386000,-0.037000,9.061000,21.618000,8.618000,28.720000
2.944,-0.714000,-0.365000,0.004000,21.473000,35.023000,31.450000,28.720000
2.957,-1.069000,-0.242000,0.066000,23.901000,27.237000,42.076000,28.720000
2.969,-1.315000,-0.154000,0.100000,13.183000,9.290000,36.748000,28.670000
2.977,-1.378000,-0.126000,0.106000,-4.405000,-3.366000,17.550000,28.670000
2.989,-1.280000,-0.247000,0.059000,-15.450000,-7.809000,-9.031000,28.580000
2.996,-1.073000,-0.321000,0.036000,-15.794000,-6.328000,-26.466000,28.720000
3.007,-0.938000,-0.335000,0.050000,-7.992000,-1.840000,-28.885000,28.770000
3.020,-0.840000,-0.320000,0.099000,1.183000,4.924000,-20.916000,28.670000
3.027,-0.866000,-0.231000,0.123000,3.817000,12.107000,-4.588000,28.720000
3.039,-1.043000,-0.233000,0.124000,-2.008000,10.038000,0.947000,28.720000
3.046,-1.138000,-0.259000,0.113000,-12.137000,-1.840000,-5.786000,28.670000
3.058,-1.073000,-0.288000,0.114000,-20.229000,-17.931000,-15.748000,28.670000
3.070,-0.892000,-0.277000,0.118000,-27.473000,-28.481000,-20.969000,28.810000
3.078,-0.708000,-0.303000,0.080000,-27.802000,-26.046000,-17.214000,28.720000
3.089,-0.612000,-0.307000,0.036000,-24.359000,-17.382000,-1.267000,28.670000
3.096,-0.654000,-0.314000,-0.003000,-15.481000,-5.366000,18.519000,28.670000
3.108,-0.823000,-0.313000,-0.019000,-10.809000,0.924000,29.023000,28.670000
3.120,-0.948000,-0.298000,-0.020000,-13.008000,1.244000,24.313000,28.720000
3.128,-0.959000,-0.279000,-0.039000,-18.435000,-1.656000,17.145000,28.720000
3.139,-0.883000,-0.287000,-0.070000,-21.298000,-7.229000,13.359000,28.670000
3.146,-0.787000,-0.272000,-0.095000,-19.328000,-8.298000,20.939000,28.770000
3.157,-0.797000,-0.311000,-0.086000,-11.290000,-10.389000,33.382000,28.770000
3.170,-0.834000,-0.331000,-0.052000,-1.359000,-8.366000,42.000000,28.720000
3.177,-0.872000,-0.300000,-0.025000,1.275000,-4.153000,46.809000,28.770000
3.189,-0.888000,-0.284000,0.006000,-1.405000,2.962000,46.901000,28.670000
3.196,-0.920000,-0.311000,-0.023000,-8.191000,8.878000,37.855000,28.720000
3.208,-0.857000,-0.271000,-0.045000,-11.885000,11.687000,36.046000,28.720000
3.220,-0.827000,-0.260000,-0.087000,-9.137000,11.252000,38.145000,28.670000
3.227,-0.809000,-0.272000,-0.082000,-2.053000,5.550000,45.328000,28.770000
3.239,-0.801000,-0.247000,-0.008000,5.664000,1.466000,56.450000,28.770000
3.247,-0.847000,-0.210000,0.081000,8.260000,0.076000,69.641000,28.720000
3.258,-0.913000,-0.191000,0.135000,8.328000,-0.252000,74.069000,28.620000
3.265,-0.944000,-0.194000,0.167000,0.008000,4.878000,69.733000,28.670000
3.280,-0.964000,-0.222000,0.162000,-12.366000,8.573000,58.908000,28.670000
3.290,-0.941000,-0.214000,0.105000,-24.244000,11.504000,47.298000,28.720000
3.297,-0.875000,-0.160000,0.007000,-31.885000,7.794000,47.809000,28.810000
3.309,-0.841000,-0.155000,-0.094000,-31.992000,5.084000,57.649000,28.670000
3.316,-0.857000,-0.080000,-0.137000,-21.534000,-3.481000,75.626000,28.770000
3.328,-0.949000,-0.084000,-0.119000,-9.504000,-5.031000,87.023000,28.670000
3.335,-1.067000,-0.061000,-0.067000,-2.924000,-5.870000,88.176000,28.810000
3.347,-1.188000,-0.088000,-0.037000,-3.962000,-9.519000,74.382000,28.720000
3.359,-1.163000,-0.111000,0.037000,-13.489000,-7.053000,57.565000,28.770000
3.366,-1.079000,-0.156000,0.030000,-19.053000,-8.313000,39.962000,28.670000
3.380,-0.938000,-0.112000,-0.001000,-16.763000,-9.519000,35.878000,28.720000
3.386,-0.819000,-0.072000,-0.012000,-12.786000,-3.221000,43.412000,28.720000
3.397,-0.824000,-0.026000,-0.004000,-5.153000,4.809000,57.809000,28.670000
3.409,-0.938000,-0.026000,0.046000,-0.664000,9.969000,66.519000,28.580000
3.416,-1.064000,-0.041000,0.092000,0.374000,8.580000,65.595000,28.720000
3.429,-1.102000,-0.049000,0.143000,-7.198000,-1.061000,54.053000,28.720000
3.436,-1.016000,0.021000,0.177000,-20.420000,-8.168000,45.550000,28.770000
3.448,-0.961000,0.044000,0.156000,-30.550000,-13.656000,44.229000,28.770000
3.460,-0.915000,0.097000,0.078000,-31.168000,-14.817000,53.458000,28.620000
3.467,-0.944000,0.093000,0.019000,-26.069000,-15.038000,65.000000,28.720000
3.479,-1.019000,0.012000,-0.021000,-19.023000,-6.282000,68.450000,28.720000
3.488,-1.131000,-0.038000,0.014000,-15.038000,-1.817000,61.046000,28.770000
3.498,-1.207000,-0.085000,0.071000,-16.908000,-2.947000,42.527000,28.670000
3.503,-1.162000,-0.029000,0.125000,-23.763000,-12.740000,26.504000,28.770000
3.517,-0.990000,0.057000,0.109000,-28.405000,-18.588000,18.939000,28.720000
3.529,-0.823000,0.206000,0.066000,-22.878000,-21.084000,28.290000,28.580000
3.537,-0.824000,0.259000,0.007000,-18.237000,-15.832000,45.344000,28.670000
3.548,-0.970000,0.216000,-0.028000,-12.527000,-10.809000,60.076000,28.620000
3.555,-1.133000,0.134000,-0.024000,-7.244000,-8.878000,58.420000,28.620000
3.567,-1.183000,0.050000,-0.017000,-7.603000,-7.550000,44.809000,28.770000
3.580,-1.111000,0.033000,-0.011000,-7.962000,-0.031000,32.511000,28.770000
3.588,-1.056000,0.065000,0.018000,-10.710000,6.656000,21.618000,28.670000
3.599,-1.002000,0.106000,0.012000,-9.061000,12.977000,15.229000,28.620000
3.606,-1.005000,0.152000,0.021000,-5.565000,7.221000,18.168000,28.720000
3.618,-0.992000,0.149000,0.041000,-3.878000,2.534000,21.779000,28.670000
3.625,-0.978000,0.198000,0.058000,-1.076000,-1.397000,26.405000,28.670000
3.638,-0.977000,0.194000,0.100000,-5.344000,-0.237000,31.832000,28.720000
3.650,-1.002000,0.149000,0.131000,-10.145000,-0.244000,30.710000,28.530000
3.657,-0.995000,0.160000,0.174000,-17.130000,-3.977000,27.038000,28.670000
3.669,-0.967000,0.122000,0.189000,-27.298000,-6.931000,22.664000,28.670000
3.679,-0.868000,0.086000,0.140000,-33.275000,-5.969000,21.015000,28.580000
3.688,-0.821000,0.081000,0.053000,-32.023000,-7.588000,27.412000,28.620000
3.696,-0.838000,0.067000,-0.016000,-26.565000,-7.634000,32.275000,28.670000
3.707,-0.818000,0.084000,-0.049000,-17.359000,-3.176000,39.832000,28.670000
3.720,-0.830000,0.140000,-0.041000,-7.939000,2.962000,49.466000,28.670000
3.727,-0.924000,0.156000,-0.021000,-2.809000,5.542000,53.504000,28.720000
3.739,-1.018000,0.167000,0.010000,-1.641000,3.931000,51.382000,28.620000
3.746,-1.025000,0.175000,0.053000,-7.008000,-1.557000,44.473000,28.670000
3.758,-0.974000,0.148000,0.047000,-13.481000,-3.992000,36.855000,28.670000
3.765,-0.875000,0.212000,-0.002000,-13.603000,0.542000,35.565000,28.720000
3.778,-0.877000,0.268000,-0.036000,-6.802000,-0.695000,44.046000,28.720000
3.791,-0.891000,0.285000,-0.065000,-3.046000,5.939000,53.038000,28.670000
3.797,-0.969000,0.291000,-0.041000,2.115000,11.374000,60.130000,28.770000
3.809,-1.074000,0.222000,-0.018000,7.985000,11.855000,54.405000,28.720000
3.816,-1.089000,0.184000,-0.007000,13.527000,15.344000,43.130000,28.620000
3.829,-1.076000,0.145000,0.024000,16.908000,15.382000,32.267000,28.720000
3.836,-1.036000,0.132000,0.009000,20.855000,18.817000,20.031000,28.670000
3.847,-0.967000,0.222000,-0.011000,21.405000,16.458000,18.405000,28.770000
3.860,-0.865000,0.300000,-0.023000,17.290000,20.160000,23.786000,28.670000
3.866,-0.859000,0.334000,-0.034000,11.244000,23.260000,32.954000,28.720000
3.879,-0.913000,0.408000,-0.028000,11.840000,13.542000,48.244000,28.670000
3.886,-1.021000,0.406000,-0.015000,8.969000,1.145000,54.290000,28.770000
3.900,-1.116000,0.388000,0.013000,3.153000,-10.008000,54.099000,28.720000
3.905,-1.135000,0.325000,0.019000,-2.107000,-17.496000,45.183000,28.620000
3.917,-1.071000,0.275000,0.025000,-6.191000,-18.344000,33.901000,28.720000
3.930,-0.971000,0.240000,0.016000,-7.267000,-13.931000,27.351000,28.670000
3.938,-0.928000,0.225000,0.062000,-14.321000,-15.824000,27.725000,28.770000
3.950,-0.836000,0.293000,0.017000,-6.870000,-9.153000,25.473000,28.720000
3.956,-0.697000,0.267000,0.042000,-9.641000,-7.290000,32.107000,28.620000
3.968,-0.734000,0.290000,0.043000,-7.328000,1.489000,40.718000,28.670000
3.978,-0.812000,0.279000,0.089000,-6.863000,0.679000,41.405000,28.670000
3.989,-0.818000,0.263000,0.111000,-10.573000,-2.397000,40.305000,28.720000
4.001,-0.755000,0.312000,0.124000,-13.878000,-3.061000,43.099000,28.720000
4.007,-0.675000,0.379000,0.108000,-18.863000,2.023000,51.672000,28.620000
4.019,-0.644000,0.434000,0.068000,-23.435000,14.153000,64.137000,28.670000
4.028,-0.763000,0.432000,0.044000,-24.023000,14.466000,74.954000,28.580000
4.039,-0.918000,0.401000,0.044000,-26.420000,5.802000,78.573000,28.670000
4.047,-1.000000,0.285000,0.052000,-31.305000,-9.321000,71.198000,28.620000
4.057,-0.906000,0.241000,0.006000,-35.977000,-18.885000,60.641000,28.670000
4.070,-0.696000,0.313000,-0.062000,-31.466000,-19.534000,61.374000,28.670000
4.077,-0.578000,0.495000,-0.136000,-18.634000,-11.122000,74.122000,28.670000
4.089,-0.680000,0.623000,-0.141000,-0.290000,-4.412000,94.046000,28.620000
4.098,-0.914000,0.610000,-0.074000,2.450000,-0.405000,105.802000,28.620000
4.108,-1.118000,0.648000,0.019000,-7.160000,-4.550000,93.084000,28.670000
4.114,-1.217000,0.441000,0.038000,-5.740000,-16.466000,78.160000,28.670000
4.129,-1.083000,0.414000,0.053000,-11.076000,-19.061000,52.168000,28.620000
4.139,-0.888000,0.406000,-0.017000,-10.809000,-22.939000,40.191000,28.720000
4.147,-0.679000,0.348000,-0.056000,-6.244000,-7.443000,37.847000,28.670000
4.159,-0.587000,0.409000,-0.059000,5.687000,4.420000,48.122000,28.670000
4.165,-0.627000,0.439000,-0.029000,15.634000,7.137000,57.511000,28.670000
4.179,-0.667000,0.445000,0.041000,21.015000,9.595000,65.618000,28.720000
4.184,-0.674000,0.506000,0.115000,14.382000,14.252000,69.366000,28.620000
4.197,-0.707000,0.544000,0.173000,7.031000,12.664000,76.550000,28.670000
4.209,-0.676000,0.604000,0.150000,-2.863000,14.160000,76.344000,28.670000
4.216,-0.668000,0.737000,0.136000,-8.573000,12.237000,87.870000,28.770000
4.229,-0.777000,0.742000,0.099000,-14.038000,8.260000,96.740000,28.720000
4.239,-0.881000,0.752000,0.059000,-16.786000,8.405000,98.351000,28.670000
4.248,-0.980000,0.743000,0.073000,-18.802000,4.374000,92.924000,28.770000
4.255,-1.068000,0.608000,0.037000,-21.656000,1.687000,77.824000,28.620000
4.267,-0.999000,0.583000,0.040000,-20.916000,2.908000,63.092000,28.620000
4.280,-0.870000,0.595000,0.043000,-18.504000,3.061000,52.840000,28.670000
4.289,-0.732000,0.525000,0.037000,-16.718000,6.809000,48.008000,28.580000
4.300,-0.571000,0.647000,0.028000,-10.252000,14.725000,53.023000,28.670000
4.306,-0.541000,0.794000,0.063000,-6.405000,17.695000,70.832000,28.620000
4.318,-0.662000,0.797000,0.074000,-9.511000,18.427000,79.023000,28.620000
4.325,-0.768000,0.816000,0.112000,-13.809000,14.664000,83.351000,28.770000
4.339,-0.860000,0.804000,0.124000,-19.931000,4.725000,82.443000,28.670000
4.351,-0.894000,0.734000,0.155000,-28.740000,-7.130000,73.656000,28.620000
4.357,-0.844000,0.676000,0.172000,-39.511000,-16.336000,63.611000,28.720000
4.369,-0.744000,0.597000,0.186000,-49.557000,-26.511000,52.137000,28.670000
4.379,-0.475000,0.619000,0.102000,-56.954000,-14.885000,38.183000,28.670000
4.389,-0.220000,0.776000,0.021000,-49.779000,11.145000,53.221000,28.670000
4.397,-0.319000,0.839000,-0.042000,-33.702000,30.397000,74.290000,28.620000
4.407,-0.581000,0.895000,-0.044000,-16.000000,37.328000,87.580000,28.670000
4.419,-0.846000,0.924000,0.023000,-8.588000,26.076000,89.626000,28.670000
4.428,-0.971000,0.908000,0.114000,-9.786000,11.947000,82.359000,28.670000
4.439,-1.009000,0.849000,0.182000,-19.321000,-1.382000,67.947000,28.720000
4.447,-0.938000,0.792000,0.234000,-34.405000,-9.046000,53.252000,28.620000
4.458,-0.770000,0.747000,0.219000,-44.420000,-14.519000,39.046000,28.670000
4.470,-0.498000,0.826000,0.170000,-46.916000,-9.282000,39.992000,28.770000
4.477,-0.389000,0.881000,0.137000,-40.290000,0.366000,56.176000,28.620000
4.489,-0.448000,0.864000,0.098000,-42.878000,8.771000,59.641000,28.720000
4.497,-0.567000,0.834000,0.107000,-41.786000,6.145000,66.756000,28.670000
4.508,-0.666000,0.795000,0.125000,-44.084000,-8.679000,64.870000,28.670000
4.515,-0.675000,0.760000,0.141000,-47.099000,-24.679000,61.481000,28.580000
4.528,-0.604000,0.755000,0.164000,-50.130000,-35.611000,58.031000,28.720000
4.540,-0.509000,0.737000,0.147000,-52.771000,-34.015000,55.298000,28.620000
4.547,-0.325000,0.808000,0.076000,-46.748000,-14.710000,58.947000,28.670000
4.559,-0.279000,0.872000,0.031000,-34.740000,5.870000,71.931000,28.580000
4.566,-0.432000,0.845000,0.005000,-19.206000,14.786000,77.107000,28.580000
4.579,-0.616000,0.839000,0.056000,-5.634000,10.618000,76.893000,28.720000
4.585,-0.732000,0.806000,0.118000,-2.962000,-4.153000,68.313000,28.670000
4.600,-0.709000,0.850000,0.184000,-3.397000,-20.496000,56.084000,28.670000
4.610,-0.687000,0.873000,0.240000,-5.427000,-41.710000,47.580000,28.620000
4.616,-0.619000,0.899000,0.310000,-15.198000,-55.893000,45.679000,28.720000
4.629,-0.612000,0.868000,0.355000,-29.443000,-75.763000,49.565000,28.580000
4.638,-0.600000,0.754000,0.400000,-29.557000,-115.298000,60.573000,28.670000
4.647,-0.486000,0.733000,0.420000,-33.015000,-141.046000,60.885000,28.620000
4.659,-0.297000,0.708000,0.346000,-52.466000,-152.153000,59.969000,28.620000
4.666,0.144000,0.779000,0.206000,-52.275000,-117.046000,61.115000,28.620000
4.680,0.479000,0.933000,0.079000,-26.802000,-49.878000,79.183000,28.770000
4.686,0.424000,0.981000,0.022000,10.397000,14.687000,102.634000,28.580000
4.698,-0.013000,1.045000,0.022000,32.855000,55.443000,122.786000,28.620000
4.704,-0.436000,1.089000,0.078000,54.924000,75.977000,124.504000,28.620000
4.717,-0.755000,1.118000,0.194000,52.191000,66.649000,108.656000,28.580000
4.730,-0.933000,1.099000,0.276000,37.748000,46.473000,88.588000,28.670000
4.738,-0.990000,1.048000,0.334000,14.153000,21.916000,67.588000,28.580000
4.750,-0.940000,1.000000,0.345000,-10.534000,-7.565000,38.656000,28.530000
4.755,-0.659000,1.027000,0.288000,-24.641000,-26.542000,18.420000,28.580000
4.768,-0.335000,1.092000,0.229000,-28.656000,-26.344000,14.153000,28.670000
4.780,-0.201000,1.041000,0.149000,-25.466000,-24.748000,15.618000,28.580000
4.789,-0.168000,1.062000,0.118000,-16.756000,-23.947000,22.802000,28.620000
4.799,-0.204000,0.988000,0.108000,-11.687000,-32.557000,32.748000,28.620000
4.805,-0.201000,0.918000,0.111000,-8.626000,-35.351000,39.695000,28.670000
4.818,-0.235000,0.866000,0.142000,-1.756000,-40.443000,46.557000,28.670000
4.828,-0.217000,0.821000,0.135000,-0.305000,-41.107000,45.878000,28.620000
4.838,-0.146000,0.866000,0.122000,3.542000,-33.176000,44.840000,28.720000
4.850,-0.097000,0.905000,0.100000,8.489000,-24.366000,45.420000,28.670000
4.856,-0.102000,0.926000,0.106000,13.702000,-12.763000,48.840000,28.670000
4.869,-0.167000,0.928000,0.123000,19.740000,-10.649000,50.718000,28.620000
4.879,-0.229000,0.911000,0.149000,24.947000,-15.824000,52.069000,28.530000
4.889,-0.248000,0.890000,0.182000,28.740000,-22.954000,49.954000,28.670000
4.894,-0.246000,0.858000,0.209000,32.015000,-29.328000,43.290000,28.670000
4.907,-0.202000,0.836000,0.223000,31.473000,-30.947000,34.267000,28.670000
4.919,-0.162000,0.858000,0.219000,28.237000,-32.786000,26.298000,28.720000
4.930,-0.149000,0.888000,0.183000,25.817000,-39.580000,20.954000,28.620000
4.939,-0.100000,0.921000,0.170000,24.824000,-47.427000,19.206000,28.670000
4.947,-0.051000,0.942000,0.144000,24.038000,-59.000000,26.580000,28.770000
4.958,0.049000,1.015000,0.135000,21.840000,-63.588000,37.374000,28.620000
4.970,0.140000,1.020000,0.139000,16.275000,-53.847000,51.099000,28.620000
4.979,0.127000,1.046000,0.154000,26.137000,-53.679000,63.603000,28.670000
4.990,0.125000,1.032000,0.169000,30.221000,-47.718000,73.137000,28.670000
4.997,0.068000,1.107000,0.178000,30.992000,-39.023000,78.130000,28.530000
5.009,0.049000,1.197000,0.185000,30.832000,-31.519000,84.420000,28.720000
5.015,0.009000,1.219000,0.197000,30.611000,-26.351000,85.779000,28.580000
5.028,-0.099000,1.223000,0.190000,26.344000,-21.489000,88.275000,28.580000
5.035,-0.125000,1.182000,0.208000,31.305000,-18.824000,83.366000,28.770000
5.047,-0.194000,1.177000,0.210000,28.145000,-23.053000,84.473000,28.620000
5.060,-0.184000,1.199000,0.207000,25.870000,-21.710000,80.702000,28.620000
5.066,-0.174000,1.202000,0.218000,21.573000,-20.603000,77.763000,28.770000
5.079,-0.141000,1.148000,0.239000,23.260000,-17.221000,70.000000,28.670000
5.086,-0.080000,1.197000,0.244000,19.351000,-5.252000,62.893000,28.580000
5.098,-0.138000,1.164000,0.233000,21.504000,-1.115000,59.244000,28.620000
5.105,-0.180000,1.125000,0.213000,23.580000,1.412000,53.687000,28.670000
5.117,-0.229000,1.081000,0.223000,25.084000,-1.137000,49.962000,28.670000
5.130,-0.269000,1.066000,0.236000,24.969000,-8.931000,43.359000,28.620000
5.136,-0.289000,1.043000,0.239000,24.198000,-17.305000,33.962000,28.620000
5.149,-0.230000,1.053000,0.261000,22.626000,-22.405000,24.817000,28.670000
5.155,-0.190000,1.049000,0.284000,20.260000,-24.412000,14.427000,28.670000
5.168,-0.128000,1.046000,0.300000,19.710000,-20.420000,5.489000,28.620000
5.177,-0.067000,1.022000,0.303000,17.855000,-18.504000,2.725000,28.720000
5.189,-0.063000,1.053000,0.302000,15.962000,-13.634000,-2.672000,28.620000
5.199,-0.053000,1.011000,0.305000,15.405000,-12.588000,-7.168000,28.670000
5.206,-0.021000,0.994000,0.312000,13.702000,-9.290000,-7.786000,28.670000
5.220,-0.008000,0.960000,0.286000,14.702000,-4.702000,-6.916000,28.620000
5.230,0.010000,1.016000,0.281000,9.046000,1.870000,-12.061000,28.620000
5.239,0.022000,1.036000,0.282000,4.847000,8.076000,-13.382000,28.670000
5.248,0.022000,1.056000,0.254000,0.008000,11.092000,-12.260000,28.580000
5.258,0.002000,1.061000,0.205000,-3.802000,10.336000,-11.634000,28.670000
5.265,0.020000,1.061000,0.168000,-7.687000,15.099000,-9.198000,28.720000
5.279,0.012000,1.034000,0.130000,-9.863000,19.359000,-4.305000,28.670000
5.290,-0.032000,1.024000,0.101000,-8.824000,19.878000,-0.336000,28.580000
5.297,-0.058000,1.011000,0.078000,-5.427000,19.947000,-1.496000,28.620000
5.309,-0.079000,1.014000,0.095000,-4.275000,20.153000,-4.076000,28.620000
5.316,-0.103000,1.001000,0.082000,-2.901000,16.321000,-8.298000,28.620000
5.330,-0.104000,0.999000,0.085000,-1.725000,12.595000,-14.191000,28.670000
5.336,-0.082000,0.988000,0.079000,-0.221000,6.786000,-18.344000,28.670000
5.348,-0.057000,0.984000,0.087000,1.076000,1.115000,-20.450000,28.620000
5.354,-0.027000,0.972000,0.094000,2.176000,-4.656000,-19.908000,28.720000
5.367,-0.011000,0.968000,0.119000,2.443000,-8.237000,-17.763000,28.670000
5.379,0.011000,0.960000,0.136000,2.710000,-9.656000,-15.160000,28.670000
5.388,0.052000,0.975000,0.157000,1.504000,-4.084000,-16.282000,28.620000
5.399,0.087000,0.984000,0.166000,-0.878000,3.092000,-14.916000,28.620000
5.406,0.097000,0.990000,0.158000,-2.183000,11.931000,-12.672000,28.670000
5.418,0.070000,0.990000,0.146000,-4.275000,17.710000,-10.542000,28.670000
5.425,0.021000,0.988000,0.119000,-6.153000,16.802000,-6.756000,28.670000
5.439,-0.002000,0.975000,0.098000,-5.420000,10.550000,-3.611000,28.620000
5.447,-0.017000,0.959000,0.084000,-3.122000,3.603000,-1.168000,28.620000
5.457,-0.007000,0.948000,0.104000,-1.611000,-0.580000,-0.603000,28.580000
5.470,0.002000,0.957000,0.108000,-0.191000,-2.649000,-1.557000,28.670000
5.478,0.026000,0.970000,0.127000,0.427000,0.389000,-4.763000,28.720000
5.490,0.031000,0.996000,0.126000,0.298000,3.901000,-7.496000,28.720000
5.497,0.027000,1.005000,0.124000,-0.557000,5.374000,-7.412000,28.670000
5.509,0.015000,1.007000,0.112000,-1.443000,5.107000,-5.908000,28.670000
5.516,0.004000,0.997000,0.104000,-1.435000,1.122000,-2.229000,28.670000
5.530,0.005000,0.982000,0.115000,-1.237000,-0.832000,1.214000,28.620000
5.536,0.032000,0.994000,0.133000,-1.099000,1.756000,-0.275000,28.720000
5.549,0.033000,0.989000,0.152000,-1.756000,6.382000,-1.137000,28.670000
5.555,0.027000,0.976000,0.148000,-2.588000,11.145000,-3.695000,28.580000
5.568,0.029000,0.977000,0.138000,-2.191000,13.901000,-6.260000,28.620000
5.579,0.010000,0.978000,0.132000,-1.565000,13.641000,-6.237000,28.620000
5.588,-0.001000,0.975000,0.134000,-1.099000,11.305000,-5.336000,28.670000
5.600,-0.015000,0.963000,0.122000,-0.824000,8.290000,-3.794000,28.580000
5.607,-0.005000,0.974000,0.127000,-0.611000,6.496000,-4.939000,28.670000
5.619,0.005000,0.972000,0.143000,-0.855000,5.725000,-5.298000,28.620000
5.629,0.005000,0.958000,0.125000,-1.351000,4.985000,-6.008000,28.720000
5.640,0.021000,0.958000,0.125000,-1.878000,4.397000,-6.046000,28.580000
5.648,0.028000,0.955000,0.111000,-1.412000,2.420000,-4.557000,28.670000
5.659,0.026000,0.959000,0.112000,-0.885000,-1.763000,-2.137000,28.620000
5.666,0.009000,0.952000,0.107000,0.992000,-9.115000,0.626000,28.620000
5.680,-0.027000,0.956000,0.117000,2.885000,-18.878000,3.099000,28.580000
5.686,-0.011000,0.958000,0.121000,5.489000,-26.389000,3.405000,28.770000
5.698,0.007000,0.987000,0.124000,5.237000,-29.855000,4.824000,28.720000
5.705,0.033000,0.982000,0.132000,8.702000,-31.863000,3.473000,28.720000
5.717,0.064000,0.994000,0.118000,10.679000,-29.084000,2.634000,28.670000
5.730,0.111000,1.011000,0.117000,10.649000,-21.137000,6.679000,28.670000
5.739,0.119000,1.017000,0.121000,10.328000,-13.336000,12.076000,28.670000
5.751,0.100000,1.025000,0.123000,8.710000,-6.802000,17.794000,28.720000
5.756,0.052000,1.044000,0.132000,7.298000,-6.145000,21.756000,28.620000
5.769,0.016000,1.047000,0.145000,6.305000,-8.771000,23.534000,28.670000
5.780,-0.011000,1.047000,0.151000,4.305000,-10.427000,23.046000,28.670000
5.789,-0.021000,1.027000,0.151000,3.115000,-12.321000,20.588000,28.670000
5.796,-0.012000,1.029000,0.170000,1.237000,-12.756000,17.198000,28.720000
5.808,0.000000,1.028000,0.170000,-2.168000,-11.656000,14.985000,28.670000
5.820,0.007000,1.025000,0.172000,-5.580000,-11.664000,12.305000,28.580000
5.828,0.005000,1.017000,0.157000,-8.985000,-11.756000,11.656000,28.720000
5.840,0.005000,0.986000,0.138000,-9.855000,-12.153000,9.832000,28.620000
5.847,0.031000,0.991000,0.136000,-10.504000,-9.206000,8.962000,28.720000
5.859,0.030000,0.996000,0.140000,-10.649000,-5.595000,7.229000,28.580000
5.866,0.035000,0.989000,0.137000,-10.466000,-0.626000,4.168000,28.670000
5.879,0.031000,0.977000,0.134000,-10.099000,2.115000,1.802000,28.620000
5.886,0.017000,0.972000,0.117000,-8.893000,2.733000,-0.221000,28.720000
5.898,0.009000,0.952000,0.115000,-7.687000,-0.153000,-0.695000,28.670000
5.905,0.022000,0.951000,0.110000,-5.763000,-2.756000,0.061000,28.670000
5.918,0.043000,0.944000,0.110000,-3.550000,-4.260000,2.977000,28.720000
5.925,0.064000,0.950000,0.123000,-2.359000,-2.542000,5.481000,28.720000
5.938,0.072000,0.960000,0.129000,-1.397000,0.534000,7.496000,28.670000
5.944,0.057000,0.970000,0.135000,-0.863000,3.229000,8.290000,28.770000
5.957,0.032000,0.969000,0.135000,-1.153000,4.649000,8.656000,28.670000
5.970,0.003000,0.969000,0.121000,-1.588000,3.206000,8.802000,28.620000
5.978,-0.022000,0.978000,0.112000,-1.282000,-0.176000,8.863000,28.530000
5.990,-0.038000,0.979000,0.102000,-0.305000,-5.450000,9.237000,28.670000
5.997,-0.049000,0.985000,0.104000,0.702000,-10.931000,8.618000,28.670000
6.009,-0.036000,0.986000,0.115000,2.183000,-13.847000,7.053000,28.620000
6.016,0.014000,1.005000,0.118000,2.962000,-12.710000,5.878000,28.720000
6.030,0.036000,1.001000,0.140000,3.023000,-8.786000,5.664000,28.670000
6.037,0.040000,1.013000,0.143000,3.580000,-5.389000,5.626000,28.670000
6.049,0.011000,1.014000,0.135000,3.260000,-3.221000,5.137000,28.620000
6.055,-0.011000,1.019000,0.116000,2.924000,-3.458000,4.069000,28.720000
6.068,-0.031000,1.020000,0.130000,3.031000,-5.855000,1.656000,28.670000
6.075,-0.020000,1.013000,0.133000,3.634000,-7.107000,-1.588000,28.670000
6.089,-0.006000,1.014000,0.155000,3.313000,-8.000000,-3.985000,28.810000
6.097,0.001000,1.003000,0.162000,2.252000,-8.733000,-6.099000,28.810000
6.107,0.013000,0.998000,0.166000,0.718000,-10.275000,-6.374000,28.720000
6.120,0.025000,1.001000,0.162000,-0.855000,-12.321000,-5.687000,28.670000
6.128,0.038000,0.984000,0.170000,-1.809000,-13.649000,-3.969000,28.670000
6.140,0.060000,0.991000,0.177000,-4.626000,-10.328000,-0.962000,28.670000
6.148,0.046000,0.976000,0.169000,-5.611000,-8.198000,0.084000,28.620000
6.159,0.048000,0.960000,0.154000,-6.412000,-5.443000,-0.863000,28.670000
6.166,0.061000,0.952000,0.147000,-6.206000,0.366000,-3.511000,28.670000
6.179,0.052000,0.945000,0.137000,-3.779000,4.924000,-5.275000,28.720000
6.186,0.055000,0.952000,0.127000,-2.802000,7.847000,-6.756000,28.620000
6.198,0.044000,0.954000,0.130000,-2.092000,8.710000,-7.443000,28.770000
6.205,0.033000,0.966000,0.124000,-0.985000,6.618000,-7.008000,28.670000
6.217,0.034000,0.975000,0.126000,-0.420000,2.962000,-6.328000,28.720000
6.230,0.029000,0.978000,0.124000,-0.733000,-0.412000,-4.580000,28.720000
6.237,0.022000,0.983000,0.125000,-1.237000,-4.008000,-4.061000,28.620000
6.251,0.037000,0.993000,0.129000,-1.718000,-6.168000,-3.962000,28.670000
6.256,0.058000,1.005000,0.106000,-2.573000,-5.840000,-3.389000,28.670000
6.269,0.073000,1.010000,0.102000,-3.733000,-4.473000,-1.015000,28.620000
6.278,0.050000,1.001000,0.085000,-2.672000,-6.053000,1.023000,28.620000
6.289,0.025000,0.983000,0.082000,-1.160000,-9.450000,3.176000,28.770000
6.297,0.013000,0.994000,0.094000,0.405000,-12.771000,3.275000,28.770000
6.310,0.021000,0.994000,0.110000,1.481000,-14.969000,3.618000,28.770000
6.315,0.013000,0.980000,0.121000,2.489000,-18.664000,3.336000,28.620000
6.330,0.043000,0.980000,0.135000,2.992000,-20.084000,2.656000,28.770000
6.336,0.065000,0.974000,0.136000,3.718000,-22.824000,5.863000,28.670000
6.349,0.046000,0.974000,0.133000,4.496000,-25.702000,8.527000,28.670000
6.360,0.050000,0.985000,0.138000,4.237000,-28.870000,12.031000,28.720000
6.367,0.055000,0.976000,0.133000,4.298000,-28.008000,12.794000,28.720000
6.379,0.059000,0.980000,0.152000,6.542000,-25.405000,11.351000,28.670000
6.389,0.057000,0.981000,0.158000,5.099000,-19.542000,9.031000,28.580000
6.399,0.055000,0.995000,0.173000,4.427000,-17.145000,5.649000,28.620000
6.406,0.067000,1.007000,0.174000,3.244000,-14.473000,3.359000,28.720000
6.419,0.093000,1.010000,0.172000,1.260000,-11.031000,1.748000,28.580000
6.429,0.098000,0.996000,0.164000,-0.260000,-9.878000,2.855000,28.670000
6.440,0.070000,0.994000,0.153000,-0.885000,-10.580000,4.718000,28.620000
6.446,0.047000,0.980000,0.154000,-1.405000,-13.511000,6.527000,28.720000
6.458,0.039000,0.992000,0.165000,-1.779000,-16.672000,6.969000,28.770000
6.465,0.060000,0.988000,0.159000,-2.145000,-16.176000,6.649000,28.670000
6.479,0.059000,0.992000,0.172000,-2.947000,-14.305000,5.702000,28.670000
6.490,0.058000,0.986000,0.167000,-3.099000,-12.237000,4.168000,28.620000
6.498,0.066000,0.988000,0.166000,-2.489000,-9.137000,2.237000,28.620000
6.509,0.075000,0.988000,0.169000,-2.901000,-5.260000,1.206000,28.670000
6.517,0.070000,0.993000,0.166000,-3.489000,-3.115000,1.466000,28.670000
6.530,0.053000,0.992000,0.152000,-3.992000,-1.802000,1.840000,28.720000
6.537,0.042000,1.000000,0.146000,-3.626000,-2.023000,1.260000,28.620000
6.549,0.037000,0.998000,0.139000,-3.740000,-2.137000,1.305000,28.670000
6.556,0.035000,0.985000,0.143000,-3.992000,-2.260000,0.427000,28.580000
6.568,0.034000,0.989000,0.133000,-4.191000,-3.405000,-0.756000,28.720000
6.575,0.044000,0.983000,0.141000,-4.046000,-4.817000,-1.374000,28.720000
6.589,0.054000,0.985000,0.144000,-4.275000,-5.901000,-1.481000,28.670000
6.595,0.089000,0.993000,0.141000,-4.656000,-4.099000,-1.748000,28.770000
6.607,0.086000,0.983000,0.137000,-4.611000,-1.069000,-0.664000,28.580000
6.620,0.075000,0.982000,0.124000,-4.153000,1.420000,-0.191000,28.720000
6.630,0.059000,0.976000,0.130000,-3.481000,3.015000,0.321000,28.620000
6.640,0.031000,0.968000,0.117000,-2.786000,2.290000,-0.023000,28.670000
6.648,0.031000,0.971000,0.113000,-3.214000,1.046000,0.382000,28.770000
6.659,0.024000,0.963000,0.123000,-3.130000,-1.252000,-0.084000,28.670000
6.666,0.029000,0.969000,0.131000,-2.809000,-4.084000,-0.489000,28.620000
6.679,0.042000,0.967000,0.125000,-3.168000,-4.855000,-0.748000,28.580000
6.689,0.068000,0.979000,0.122000,-3.382000,-4.122000,-0.947000,28.580000
6.700,0.080000,0.979000,0.129000,-3.267000,-0.939000,0.008000,28.670000
6.705,0.060000,0.972000,0.115000,-2.985000,0.557000,1.084000,28.720000
6.718,0.058000,0.973000,0.115000,-2.053000,1.679000,0.748000,28.720000
6.730,0.059000,0.980000,0.114000,-1.115000,3.099000,0.237000,28.670000
6.740,0.046000,0.972000,0.105000,-0.191000,3.756000,0.290000,28.770000
6.747,0.031000,0.962000,0.116000,0.450000,2.916000,-0.679000,28.720000
6.758,0.027000,0.966000,0.114000,1.061000,1.191000,-1.534000,28.620000
6.765,0.039000,0.976000,0.142000,0.985000,0.145000,-1.565000,28.670000
6.779,0.039000,0.974000,0.146000,0.153000,-0.366000,-1.053000,28.770000
6.783,0.033000,0.972000,0.137000,-0.473000,-1.496000,-1.260000,28.720000
6.797,0.029000,0.978000,0.135000,-0.420000,-3.496000,-1.282000,28.720000
6.810,0.023000,0.973000,0.133000,-0.008000,-6.061000,-1.527000,28.720000
6.816,0.030000,0.964000,0.147000,0.405000,-8.191000,-1.809000,28.670000
6.829,0.043000,0.970000,0.155000,0.305000,-8.473000,-2.725000,28.770000
6.838,0.059000,0.981000,0.169000,-0.397000,-7.191000,-3.191000,28.670000
6.849,0.068000,0.988000,0.187000,-1.542000,-4.328000,-3.878000,28.720000
6.856,0.065000,0.988000,0.156000,-3.817000,-2.153000,-3.626000,28.670000
6.868,0.060000,0.988000,0.153000,-3.832000,-2.046000,-3.000000,28.770000
6.875,0.059000,0.984000,0.139000,-1.611000,-3.122000,-2.802000,28.720000
6.889,0.055000,0.979000,0.147000,-1.023000,-4.008000,-2.542000,28.620000
6.897,0.069000,0.984000,0.145000,-0.542000,-3.359000,-2.985000,28.620000
6.907,0.083000,0.983000,0.149000,-0.191000,-1.855000,-2.031000,28.770000
6.920,0.085000,0.994000,0.150000,-0.519000,0.046000,-1.908000,28.670000
6.928,0.085000,0.992000,0.146000,-0.450000,0.519000,-1.000000,28.720000
6.939,0.078000,0.999000,0.139000,-0.359000,-0.008000,0.115000,28.620000
6.948,0.067000,0.988000,0.135000,-0.084000,-0.656000,1.733000,28.670000
6.959,0.052000,0.982000,0.143000,1.176000,-2.168000,2.901000,28.670000
6.966,0.044000,1.003000,0.147000,1.412000,-2.687000,2.168000,28.620000
6.979,0.034000,0.985000,0.145000,0.618000,-1.374000,0.962000,28.720000
6.989,0.039000,0.984000,0.143000,0.443000,-2.611000,-0.466000,28.670000
6.999,0.061000,0.994000,0.146000,0.649000,-2.069000,-0.618000,28.770000
7.006,0.065000,0.984000,0.143000,0.206000,-1.550000,-0.557000,28.770000
7.019,0.075000,0.973000,0.139000,0.420000,-1.550000,0.939000,28.720000
7.027,0.069000,0.976000,0.143000,0.771000,-2.015000,1.244000,28.530000
7.039,0.064000,0.974000,0.141000,0.885000,-2.031000,1.916000,28.670000
7.048,0.066000,0.982000,0.150000,0.328000,-1.168000,2.878000,28.670000
7.058,0.056000,0.978000,0.141000,0.069000,-1.710000,3.168000,28.720000
7.065,0.056000,0.980000,0.146000,-0.221000,-1.382000,3.198000,28.720000
7.080,0.055000,0.976000,0.149000,0.053000,-1.099000,2.832000,28.770000
7.085,0.053000,0.970000,0.147000,0.176000,-1.336000,1.832000,28.670000
7.098,0.047000,0.969000,0.137000,0.679000,-2.130000,1.374000,28.720000
7.105,0.044000,0.968000,0.143000,1.412000,-4.573000,1.122000,28.720000
7.117,0.039000,0.968000,0.142000,2.183000,-7.916000,1.557000,28.670000
7.123,0.059000,0.992000,0.167000,1.366000,-9.527000,2.511000,28.770000
7.139,0.070000,1.000000,0.181000,0.427000,-10.008000,3.176000,28.770000
7.150,0.077000,1.010000,0.183000,-0.313000,-10.344000,3.481000,28.720000
7.157,0.099000,1.004000,0.180000,-1.763000,-7.290000,3.519000,28.720000
7.169,0.107000,0.997000,0.170000,-2.015000,-4.176000,4.038000,28.770000
7.177,0.099000,0.993000,0.149000,-2.115000,-1.237000,4.863000,28.670000
7.189,0.075000,0.984000,0.143000,-2.183000,-0.153000,5.573000,28.770000
7.197,0.045000,0.982000,0.131000,-0.847000,-1.458000,5.695000,28.720000
7.209,0.033000,0.969000,0.123000,-0.168000,-4.206000,5.420000,28.670000
7.216,0.040000,0.984000,0.142000,-0.122000,-4.977000,4.260000,28.770000
7.230,0.057000,0.975000,0.144000,0.321000,-4.366000,4.290000,28.810000
7.236,0.071000,0.989000,0.151000,0.290000,-2.550000,3.771000,28.720000
7.248,0.078000,0.989000,0.160000,-0.198000,0.534000,4.802000,28.670000
7.255,0.058000,0.989000,0.149000,-0.893000,1.237000,5.046000,28.670000
7.268,0.042000,0.979000,0.156000,-1.519000,0.885000,4.969000,28.670000
7.279,0.034000,0.975000,0.139000,-1.634000,-0.779000,4.496000,28.720000
7.289,0.035000,0.967000,0.132000,-1.702000,-2.725000,3.473000,28.720000
7.297,0.050000,0.975000,0.125000,-0.939000,-4.031000,1.679000,28.770000
7.307,0.056000,0.972000,0.124000,-0.191000,-4.580000,1.183000,28.670000
7.320,0.071000,0.977000,0.130000,0.290000,-4.542000,0.634000,28.620000
7.327,0.075000,0.978000,0.129000,0.695000,-4.069000,1.321000,28.720000
7.341,0.077000,0.971000,0.138000,1.099000,-3.282000,2.046000,28.770000
7.348,0.076000,0.973000,0.129000,1.626000,-2.855000,2.542000,28.770000
7.360,0.079000,0.979000,0.134000,1.626000,-1.053000,2.962000,28.770000
7.367,0.072000,0.987000,0.139000,1.412000,-0.763000,4.229000,28.720000
7.380,0.063000,0.988000,0.146000,1.122000,-0.153000,5.191000,28.670000
7.388,0.045000,0.990000,0.139000,0.382000,-0.511000,5.641000,28.670000
7.399,0.036000,0.992000,0.130000,0.099000,-2.412000,5.588000,28.720000
7.407,0.018000,0.986000,0.130000,0.489000,-4.519000,4.504000,28.620000
7.419,0.028000,0.988000,0.133000,1.328000,-5.496000,2.298000,28.620000
7.430,0.044000,0.980000,0.147000,1.603000,-5.374000,0.267000,28.670000
7.439,0.065000,0.992000,0.143000,1.282000,-4.198000,-0.641000,28.670000
7.447,0.076000,0.990000,0.147000,1.107000,-2.985000,-1.550000,28.810000
7.459,0.077000,0.996000,0.139000,0.374000,-2.260000,-0.107000,28.620000
7.466,0.067000,0.991000,0.132000,0.336000,-3.573000,1.137000,28.670000
7.480,0.047000,0.988000,0.131000,0.557000,-5.893000,1.924000,28.770000
7.486,0.054000,0.985000,0.127000,1.008000,-8.046000,1.405000,28.720000
7.498,0.058000,0.987000,0.140000,1.603000,-9.504000,-0.389000,28.620000
7.505,0.070000,0.983000,0.145000,1.588000,-9.779000,-2.847000,28.670000
7.518,0.095000,0.979000,0.156000,1.336000,-8.809000,-3.969000,28.670000
7.525,0.115000,0.965000,0.147000,1.176000,-7.611000,-4.397000,28.670000
7.538,0.134000,0.974000,0.150000,1.450000,-5.779000,-3.336000,28.720000
7.551,0.145000,0.973000,0.151000,0.962000,-3.802000,-0.802000,28.670000
7.557,0.128000,0.960000,0.146000,0.771000,-2.977000,1.748000,28.670000
7.570,0.115000,0.962000,0.148000,0.924000,-3.313000,4.519000,28.720000
7.577,0.112000,0.952000,0.156000,1.198000,-2.809000,6.611000,28.720000
7.590,0.114000,0.963000,0.161000,1.092000,-0.992000,7.267000,28.720000
7.597,0.104000,0.972000,0.161000,0.550000,1.344000,8.359000,28.770000
7.610,0.082000,0.973000,0.145000,-0.305000,3.099000,8.542000,28.770000
7.617,0.061000,0.974000,0.147000,-0.069000,3.435000,8.603000,28.720000
7.629,0.037000,0.977000,0.131000,0.275000,2.031000,7.771000,28.720000
7.639,0.031000,0.985000,0.127000,0.260000,0.122000,6.901000,28.670000
7.650,0.028000,0.988000,0.122000,0.649000,-1.130000,5.908000,28.670000
7.656,0.030000,0.992000,0.131000,1.046000,-1.687000,4.626000,28.720000
7.669,0.032000,0.991000,0.130000,1.305000,-1.908000,2.870000,28.720000
7.677,0.044000,0.989000,0.141000,1.519000,-1.466000,1.779000,28.770000
7.689,0.054000,0.998000,0.141000,0.427000,0.008000,1.313000,28.770000
7.697,0.062000,0.990000,0.131000,-0.412000,0.931000,1.015000,28.770000
7.709,0.066000,0.997000,0.127000,-0.573000,0.664000,1.023000,28.620000
7.716,0.060000,0.993000,0.125000,-0.710000,0.481000,1.336000,28.720000
7.730,0.053000,0.973000,0.118000,0.588000,-0.679000,1.534000,28.670000
7.736,0.062000,0.983000,0.108000,1.267000,-1.023000,1.389000,28.670000
7.749,0.066000,0.976000,0.127000,2.672000,-1.076000,1.405000,28.720000
7.756,0.072000,0.981000,0.135000,3.061000,-0.580000,1.244000,28.720000
7.771,0.075000,0.981000,0.154000,3.137000,0.679000,0.740000,28.670000
