time_sec,ax,ay,az,gx,gy,gz,temp_c
0.014,0.005000,0.091000,0.939000,3.061000,2.504000,-3.305000,27.210000
0.019,0.014000,0.087000,0.934000,4.550000,1.099000,-4.588000,27.260000
0.026,0.025000,0.094000,0.928000,3.733000,-0.305000,-3.214000,27.170000
0.039,0.035000,0.083000,0.927000,5.084000,-2.023000,0.802000,27.170000
0.046,0.022000,0.109000,0.925000,6.321000,-3.534000,2.924000,27.260000
0.059,0.027000,0.116000,0.949000,6.107000,-5.183000,3.328000,27.210000
0.066,0.034000,0.106000,0.961000,7.344000,-6.267000,1.031000,27.310000
0.083,0.067000,0.138000,0.972000,6.595000,-5.855000,2.756000,27.260000
0.086,0.104000,0.135000,0.990000,0.771000,-2.664000,7.321000,27.260000
0.100,0.087000,0.106000,0.978000,-0.908000,3.397000,10.496000,27.260000
0.106,0.069000,0.120000,0.964000,-1.924000,7.214000,12.588000,27.210000
0.118,0.023000,0.115000,0.952000,-3.878000,8.015000,12.328000,27.210000
0.125,0.001000,0.104000,0.927000,-3.878000,4.748000,12.351000,27.310000
0.138,-0.015000,0.088000,0.906000,0.069000,-1.443000,12.405000,27.170000
0.145,-0.016000,0.122000,0.912000,1.557000,-5.725000,9.397000,27.260000
0.157,-0.019000,0.130000,0.910000,1.893000,-8.344000,5.756000,27.260000
0.164,0.007000,0.141000,0.915000,3.924000,-7.023000,-0.420000,27.210000
0.177,0.005000,0.129000,0.923000,3.122000,-5.092000,-5.527000,27.210000
0.185,0.019000,0.120000,0.928000,1.649000,-0.786000,-8.756000,27.210000
0.197,0.028000,0.137000,0.928000,-0.076000,3.420000,-10.939000,27.350000
0.209,0.024000,0.119000,0.902000,-0.618000,2.931000,-11.466000,27.170000
0.216,0.016000,0.120000,0.912000,0.855000,1.718000,-13.527000,27.260000
0.229,0.021000,0.138000,0.932000,2.702000,-0.748000,-9.771000,27.210000
0.236,0.006000,0.131000,0.932000,2.901000,-2.122000,-10.061000,27.210000
0.248,-0.008000,0.128000,0.942000,3.870000,-3.076000,-8.206000,27.310000
0.255,-0.027000,0.141000,0.943000,3.290000,-5.313000,-7.962000,27.170000
0.267,-0.027000,0.160000,0.970000,1.611000,-11.450000,-11.779000,27.170000
0.274,0.035000,0.185000,1.007000,-4.641000,-12.443000,-13.779000,27.260000
0.287,0.130000,0.163000,0.992000,-11.687000,-6.847000,-9.321000,27.170000
0.299,0.162000,0.130000,0.980000,-14.763000,2.427000,-3.008000,27.210000
0.306,0.142000,0.136000,0.969000,-15.710000,11.855000,8.580000,27.310000
0.318,0.063000,0.136000,0.989000,-16.237000,16.679000,13.107000,27.260000
0.325,-0.029000,0.105000,0.995000,-15.046000,16.687000,10.305000,27.260000
0.338,-0.079000,0.112000,1.021000,-12.702000,12.695000,3.420000,27.260000
0.345,-0.116000,0.100000,1.032000,-13.069000,7.214000,-5.374000,27.310000
0.357,-0.112000,0.116000,0.996000,-15.931000,4.450000,-13.832000,27.210000
0.369,-0.102000,0.099000,0.961000,-16.603000,2.015000,-20.237000,27.310000
0.376,-0.112000,0.064000,0.933000,-12.832000,-4.649000,-24.832000,27.170000
0.389,-0.089000,0.056000,0.920000,-5.733000,-10.412000,-28.924000,27.260000
0.396,-0.047000,0.106000,0.902000,-5.076000,-11.237000,-34.168000,27.260000
0.407,0.002000,0.075000,0.878000,-4.962000,-8.908000,-38.756000,27.210000
0.414,0.055000,0.073000,0.864000,0.473000,-1.450000,-40.924000,27.310000
0.427,0.045000,0.094000,0.882000,5.473000,3.824000,-37.588000,27.310000
0.434,-0.020000,0.101000,0.907000,8.954000,5.847000,-39.840000,27.260000
0.447,-0.062000,0.127000,0.931000,9.786000,3.534000,-43.786000,27.260000
0.459,-0.065000,0.149000,0.970000,5.443000,-0.695000,-43.153000,27.170000
0.466,-0.050000,0.131000,0.954000,2.450000,-5.092000,-41.534000,27.310000
0.478,-0.004000,0.123000,0.963000,0.374000,-6.244000,-39.206000,27.210000
0.486,0.013000,0.143000,0.965000,-1.603000,-4.191000,-36.527000,27.210000
0.498,0.008000,0.147000,0.958000,-2.809000,-2.267000,-36.099000,27.260000
0.505,0.016000,0.120000,0.939000,-1.443000,0.748000,-37.443000,27.260000
0.517,0.018000,0.110000,0.912000,-1.458000,1.557000,-33.985000,27.350000
0.523,-0.004000,0.104000,0.916000,-0.595000,0.145000,-28.634000,27.260000
0.537,-0.035000,0.125000,0.923000,-0.359000,1.275000,-22.809000,27.210000
0.549,-0.135000,0.108000,0.952000,1.450000,-3.122000,-17.664000,27.170000
0.556,-0.180000,0.171000,0.959000,0.527000,-3.832000,-23.580000,27.260000
0.568,-0.234000,0.173000,0.965000,-5.122000,-8.840000,-34.168000,27.260000
0.575,-0.224000,0.099000,0.922000,1.405000,-14.504000,-48.496000,27.120000
0.588,-0.179000,0.115000,0.937000,8.611000,-21.198000,-65.603000,27.310000
0.593,-0.119000,0.135000,0.947000,6.550000,-26.305000,-76.687000,27.210000
0.606,-0.018000,0.123000,0.942000,5.504000,-30.252000,-78.260000,27.260000
0.619,0.073000,0.154000,0.969000,5.473000,-27.740000,-76.870000,27.170000
0.626,0.084000,0.211000,0.967000,1.878000,-26.015000,-70.618000,27.260000
0.640,0.058000,0.174000,0.963000,3.725000,-29.908000,-71.931000,27.310000
0.646,0.071000,0.190000,0.964000,6.557000,-34.557000,-74.748000,27.210000
0.657,0.121000,0.162000,0.979000,5.084000,-40.237000,-72.458000,27.210000
0.664,0.175000,0.176000,1.005000,0.748000,-42.855000,-62.061000,27.170000
0.679,0.234000,0.173000,1.002000,0.931000,-40.466000,-52.298000,27.260000
0.689,0.259000,0.146000,1.017000,-1.931000,-28.008000,-42.397000,27.260000
0.696,0.177000,0.165000,0.994000,-5.115000,-17.527000,-37.092000,27.210000
0.709,0.154000,0.189000,1.008000,-9.008000,-3.305000,-37.008000,27.310000
0.715,0.088000,0.178000,1.002000,-11.061000,11.198000,-39.641000,27.310000
0.729,0.007000,0.151000,0.983000,-8.771000,18.023000,-39.931000,27.260000
0.735,-0.065000,0.144000,0.997000,-8.015000,16.122000,-35.695000,27.260000
0.748,-0.135000,0.189000,1.022000,-5.679000,7.565000,-34.969000,27.260000
0.759,-0.220000,0.170000,1.029000,-8.191000,-12.359000,-41.550000,27.260000
0.765,-0.163000,0.190000,1.031000,-13.847000,-25.725000,-53.481000,27.210000
0.780,-0.080000,0.177000,1.019000,-16.191000,-33.336000,-63.901000,27.210000
0.785,0.024000,0.173000,1.025000,-16.641000,-34.740000,-66.626000,27.260000
0.797,0.083000,0.172000,1.027000,-16.176000,-33.275000,-67.275000,27.260000
0.809,0.094000,0.182000,1.007000,-21.664000,-31.924000,-64.099000,27.260000
0.816,0.121000,0.182000,0.993000,-27.893000,-32.183000,-61.053000,27.310000
0.829,0.176000,0.184000,0.968000,-32.954000,-25.687000,-56.153000,27.210000
0.835,0.193000,0.157000,0.930000,-32.855000,-15.748000,-53.038000,27.210000
0.847,0.156000,0.142000,0.884000,-28.885000,-7.107000,-50.519000,27.260000
0.859,0.122000,0.135000,0.874000,-23.588000,0.748000,-51.992000,27.260000
0.866,0.073000,0.124000,0.853000,-21.565000,0.069000,-52.679000,27.310000
0.878,0.026000,0.103000,0.837000,-18.443000,-7.260000,-56.710000,27.310000
0.885,0.045000,0.132000,0.844000,-15.389000,-14.374000,-59.084000,27.210000
0.898,0.043000,0.130000,0.828000,-12.473000,-23.053000,-58.992000,27.210000
0.904,0.064000,0.131000,0.845000,-7.198000,-27.763000,-56.641000,27.260000
0.917,0.098000,0.150000,0.855000,-4.137000,-29.221000,-54.046000,27.170000
0.930,0.108000,0.145000,0.870000,-2.313000,-28.786000,-53.252000,27.310000
0.937,0.104000,0.162000,0.878000,-3.061000,-27.275000,-54.359000,27.210000
0.948,0.097000,0.152000,0.899000,-4.756000,-27.634000,-54.076000,27.310000
0.955,0.058000,0.119000,0.914000,-4.794000,-31.870000,-58.672000,27.170000
0.967,0.073000,0.130000,0.932000,0.183000,-36.504000,-64.435000,27.260000
0.974,0.105000,0.152000,0.958000,1.489000,-41.290000,-61.000000,27.170000
0.988,0.134000,0.182000,0.977000,0.229000,-45.985000,-56.954000,27.260000
0.999,0.165000,0.198000,0.996000,-2.824000,-43.244000,-57.023000,27.210000
1.006,0.189000,0.213000,1.001000,-8.038000,-37.053000,-56.931000,27.310000
1.018,0.191000,0.201000,0.987000,-11.641000,-29.389000,-60.565000,27.350000
1.025,0.207000,0.206000,0.964000,-12.969000,-19.328000,-67.405000,27.350000
1.037,0.184000,0.184000,0.941000,-14.702000,-14.748000,-70.779000,27.260000
1.049,0.165000,0.149000,0.929000,-10.466000,-14.344000,-68.160000,27.210000
1.056,0.172000,0.167000,0.914000,-8.435000,-17.573000,-66.061000,27.210000
1.068,0.168000,0.182000,0.923000,-10.344000,-20.908000,-64.053000,27.210000
1.075,0.163000,0.184000,0.955000,-10.603000,-22.626000,-62.565000,27.260000
1.087,0.173000,0.205000,0.971000,-11.641000,-21.267000,-65.473000,27.170000
1.093,0.210000,0.212000,0.964000,-14.756000,-18.275000,-68.237000,27.170000
1.106,0.226000,0.173000,0.940000,-15.359000,-14.763000,-71.519000,27.210000
1.118,0.265000,0.167000,0.936000,-12.412000,-12.038000,-74.282000,27.210000
1.125,0.273000,0.162000,0.940000,-10.634000,-12.580000,-72.130000,27.310000
1.138,0.255000,0.171000,0.974000,-9.763000,-17.931000,-68.069000,27.260000
1.145,0.262000,0.172000,0.988000,-11.282000,-21.573000,-65.366000,27.170000
1.156,0.280000,0.169000,0.981000,-15.084000,-22.573000,-64.099000,27.260000
1.169,0.269000,0.155000,0.972000,-11.733000,-22.244000,-66.382000,27.310000
1.176,0.293000,0.163000,0.949000,-15.084000,-22.824000,-66.718000,27.210000
1.188,0.243000,0.158000,0.958000,-20.916000,-30.573000,-67.000000,27.210000
1.197,0.253000,0.149000,0.923000,-22.817000,-38.908000,-67.977000,27.260000
1.207,0.272000,0.136000,0.918000,-20.855000,-47.863000,-63.756000,27.260000
1.219,0.309000,0.159000,0.913000,-19.282000,-52.305000,-59.718000,27.260000
1.226,0.331000,0.196000,0.922000,-22.374000,-50.733000,-54.603000,27.350000
1.239,0.354000,0.206000,0.913000,-26.687000,-42.275000,-49.969000,27.310000
1.246,0.354000,0.190000,0.880000,-28.321000,-28.802000,-49.695000,27.210000
1.257,0.319000,0.187000,0.845000,-30.084000,-16.145000,-50.450000,27.260000
1.269,0.290000,0.184000,0.831000,-30.084000,-8.931000,-53.412000,27.260000
1.276,0.266000,0.165000,0.838000,-26.183000,-5.557000,-54.412000,27.260000
1.289,0.216000,0.156000,0.835000,-21.435000,-9.504000,-54.893000,27.310000
1.296,0.224000,0.159000,0.838000,-20.267000,-15.115000,-55.710000,27.310000
1.307,0.249000,0.134000,0.847000,-19.420000,-17.458000,-57.313000,27.210000
1.313,0.284000,0.120000,0.846000,-13.962000,-16.855000,-58.725000,27.260000
1.326,0.312000,0.139000,0.858000,-12.634000,-13.870000,-57.351000,27.260000
1.339,0.330000,0.137000,0.865000,-12.710000,-11.641000,-55.565000,27.260000
1.345,0.311000,0.134000,0.868000,-9.176000,-14.863000,-52.992000,27.400000
1.357,0.273000,0.142000,0.888000,-7.901000,-22.626000,-50.214000,27.310000
1.364,0.255000,0.138000,0.916000,-9.931000,-31.687000,-49.511000,27.310000
1.377,0.269000,0.124000,0.906000,-9.725000,-38.344000,-53.084000,27.170000
1.389,0.337000,0.154000,0.897000,-11.191000,-37.939000,-55.282000,27.260000
1.396,0.378000,0.157000,0.870000,-13.901000,-31.664000,-55.565000,27.260000
1.408,0.462000,0.155000,0.798000,-15.008000,-17.588000,-56.840000,27.310000
1.415,0.453000,0.125000,0.736000,-9.947000,-9.389000,-52.313000,27.210000
1.429,0.382000,0.104000,0.719000,-1.992000,-9.061000,-47.076000,27.260000
1.435,0.281000,0.132000,0.783000,3.802000,-21.115000,-42.122000,27.350000
1.447,0.245000,0.146000,0.848000,2.527000,-33.435000,-41.962000,27.260000
1.459,0.286000,0.117000,0.865000,1.634000,-40.641000,-47.275000,27.260000
1.466,0.347000,0.116000,0.849000,5.534000,-42.710000,-50.107000,27.310000
1.479,0.417000,0.168000,0.841000,5.008000,-39.962000,-51.763000,27.310000
1.486,0.466000,0.164000,0.848000,4.366000,-32.954000,-48.084000,27.260000
1.498,0.444000,0.166000,0.876000,7.489000,-28.038000,-41.237000,27.260000
1.504,0.381000,0.178000,0.909000,8.458000,-25.893000,-37.000000,27.260000
1.517,0.332000,0.191000,0.956000,2.084000,-25.855000,-36.611000,27.310000
1.530,0.338000,0.169000,0.957000,-1.855000,-25.504000,-42.336000,27.310000
1.537,0.410000,0.201000,0.977000,-8.122000,-17.336000,-44.664000,27.310000
1.548,0.467000,0.198000,0.942000,-14.412000,-5.855000,-46.672000,27.350000
1.555,0.483000,0.188000,0.916000,-15.023000,5.107000,-44.351000,27.170000
1.567,0.458000,0.166000,0.903000,-15.046000,11.168000,-40.229000,27.260000
1.574,0.364000,0.129000,0.895000,-13.794000,6.046000,-36.527000,27.310000
1.587,0.327000,0.135000,0.938000,-10.557000,-2.947000,-37.855000,27.210000
1.599,0.302000,0.160000,0.969000,-10.740000,-13.275000,-37.779000,27.310000
1.605,0.322000,0.145000,0.996000,-15.038000,-21.779000,-38.939000,27.260000
1.618,0.392000,0.144000,0.982000,-17.481000,-21.252000,-37.809000,27.350000
1.625,0.437000,0.126000,0.969000,-17.504000,-13.840000,-38.763000,27.450000
1.638,0.496000,0.149000,0.959000,-21.122000,1.420000,-41.176000,27.310000
1.643,0.476000,0.133000,0.960000,-21.122000,12.664000,-39.496000,27.210000
1.656,0.414000,0.135000,0.972000,-22.176000,17.855000,-37.328000,27.310000
1.668,0.349000,0.170000,0.976000,-25.115000,13.145000,-34.069000,27.260000
1.676,0.351000,0.178000,1.001000,-29.000000,8.366000,-33.122000,27.350000
1.688,0.333000,0.169000,0.954000,-32.137000,3.641000,-31.107000,27.260000
1.695,0.336000,0.159000,0.906000,-32.519000,3.366000,-33.458000,27.260000
1.707,0.357000,0.166000,0.867000,-31.191000,6.679000,-35.656000,27.400000
1.714,0.375000,0.169000,0.840000,-31.321000,14.443000,-38.427000,27.350000
1.726,0.433000,0.147000,0.818000,-29.282000,29.061000,-41.924000,27.350000
1.740,0.405000,0.126000,0.828000,-26.947000,39.687000,-42.771000,27.260000
1.747,0.351000,0.121000,0.841000,-21.908000,42.313000,-43.237000,27.310000
1.758,0.307000,0.149000,0.886000,-19.954000,35.634000,-39.718000,27.310000
1.765,0.270000,0.154000,0.908000,-23.275000,21.656000,-34.740000,27.310000
1.777,0.282000,0.144000,0.903000,-23.221000,9.466000,-30.260000,27.260000
1.784,0.297000,0.137000,0.885000,-23.489000,2.389000,-25.679000,27.260000
1.798,0.310000,0.133000,0.874000,-22.511000,2.298000,-26.557000,27.260000
1.809,0.369000,0.139000,0.866000,-21.565000,11.435000,-30.687000,27.310000
1.815,0.369000,0.125000,0.897000,-20.244000,23.534000,-32.672000,27.310000
1.830,0.297000,0.095000,0.911000,-17.038000,24.542000,-33.260000,27.310000
1.835,0.246000,0.127000,0.935000,-17.076000,20.008000,-36.626000,27.350000
1.848,0.280000,0.168000,0.936000,-24.519000,16.099000,-36.527000,27.350000
1.859,0.338000,0.140000,0.898000,-22.992000,16.435000,-30.908000,27.350000
1.866,0.355000,0.136000,0.846000,-19.176000,22.901000,-28.832000,27.210000
1.879,0.328000,0.133000,0.825000,-19.397000,28.435000,-29.695000,27.310000
1.885,0.309000,0.090000,0.784000,-17.099000,32.733000,-36.084000,27.210000
1.897,0.315000,0.104000,0.758000,-11.832000,32.473000,-42.832000,27.350000
1.904,0.287000,0.085000,0.776000,-5.908000,24.565000,-43.321000,27.260000
1.917,0.270000,0.107000,0.812000,-0.679000,9.817000,-36.603000,27.260000
1.922,0.353000,0.148000,0.865000,-3.672000,4.718000,-36.122000,27.350000
1.938,0.431000,0.146000,0.870000,-5.557000,9.916000,-29.817000,27.210000
1.949,0.441000,0.124000,0.862000,-4.618000,21.794000,-26.611000,27.210000
1.956,0.433000,0.113000,0.848000,-7.282000,37.198000,-26.664000,27.350000
1.968,0.328000,0.067000,0.833000,-5.137000,39.954000,-28.031000,27.350000
1.975,0.253000,0.093000,0.851000,-3.443000,27.817000,-31.191000,27.350000
1.989,0.244000,0.123000,0.903000,-1.985000,10.420000,-30.626000,27.400000
1.996,0.305000,0.137000,0.919000,3.466000,0.863000,-19.954000,27.310000
2.007,0.381000,0.116000,0.965000,1.198000,0.649000,-13.855000,27.310000
2.014,0.410000,0.162000,0.865000,-5.435000,16.595000,-10.718000,27.260000
2.026,0.397000,0.082000,0.856000,-6.725000,31.511000,-10.336000,27.350000
2.039,0.342000,0.070000,0.862000,0.962000,47.863000,-17.893000,27.350000
2.046,0.277000,0.102000,0.906000,3.229000,49.893000,-22.183000,27.310000
2.059,0.219000,0.098000,0.960000,2.679000,45.176000,-18.702000,27.310000
2.065,0.164000,0.118000,0.996000,0.710000,30.000000,-13.977000,27.310000
2.079,0.221000,0.145000,0.982000,-5.305000,23.794000,-11.565000,27.350000
2.085,0.239000,0.068000,0.897000,-6.695000,19.160000,-9.160000,27.260000
2.098,0.243000,0.058000,0.858000,-4.023000,18.183000,-13.748000,27.310000
2.104,0.244000,0.067000,0.858000,-2.153000,15.519000,-17.130000,27.210000
2.117,0.241000,0.033000,0.860000,4.374000,9.718000,-20.313000,27.400000
2.129,0.253000,0.091000,0.883000,8.649000,2.931000,-23.695000,27.350000
2.136,0.269000,0.084000,0.938000,9.580000,-5.550000,-16.359000,27.450000
2.149,0.263000,0.073000,0.981000,10.763000,-11.206000,-13.038000,27.260000
2.155,0.254000,0.095000,1.017000,7.420000,-10.466000,-14.252000,27.260000
2.168,0.291000,0.121000,0.988000,0.389000,-3.489000,-21.237000,27.310000
2.175,0.343000,0.122000,0.948000,-3.840000,12.695000,-24.832000,27.310000
2.187,0.283000,0.073000,0.887000,-4.832000,19.611000,-24.450000,27.260000
2.195,0.230000,0.020000,0.834000,2.229000,13.351000,-18.687000,27.350000
2.207,0.177000,0.077000,0.835000,2.244000,-3.481000,-16.626000,27.350000
2.219,0.186000,0.053000,0.837000,7.840000,-20.092000,-15.771000,27.310000
2.226,0.276000,0.083000,0.875000,10.466000,-28.702000,-15.153000,27.310000
2.239,0.340000,0.116000,0.899000,8.931000,-26.641000,-11.534000,27.310000
2.246,0.446000,0.142000,0.924000,5.664000,-11.107000,-7.924000,27.260000
2.258,0.451000,0.141000,0.937000,3.931000,11.145000,1.229000,27.260000
2.265,0.336000,0.116000,0.950000,3.672000,26.023000,6.496000,27.170000
2.279,0.191000,0.085000,0.945000,4.855000,26.053000,8.282000,27.310000
2.285,0.088000,0.083000,0.944000,6.725000,14.145000,6.534000,27.210000
2.299,0.024000,0.091000,0.970000,6.229000,-2.214000,2.466000,27.310000
2.304,0.056000,0.099000,0.959000,3.962000,-14.832000,-2.771000,27.350000
2.317,0.202000,0.127000,0.946000,1.099000,-9.450000,-7.527000,27.260000
2.325,0.273000,0.125000,0.916000,0.916000,6.191000,-4.557000,27.260000
2.337,0.270000,0.117000,0.892000,2.954000,23.244000,-2.840000,27.310000
2.344,0.134000,0.064000,0.933000,6.595000,27.290000,-3.603000,27.400000
2.357,0.008000,0.058000,1.016000,9.565000,13.573000,-7.198000,27.210000
2.369,-0.037000,0.089000,1.101000,9.023000,-7.397000,-10.260000,27.260000
2.376,0.004000,0.091000,1.130000,4.664000,-26.870000,-8.092000,27.260000
2.389,0.134000,0.119000,1.106000,-2.450000,-30.832000,-7.221000,27.260000
2.395,0.211000,0.121000,1.032000,-7.702000,-21.809000,-10.382000,27.350000
2.408,0.285000,0.090000,0.957000,-9.160000,-7.427000,-16.519000,27.310000
2.415,0.295000,0.108000,0.925000,-8.527000,2.290000,-21.855000,27.400000
2.429,0.314000,0.127000,0.903000,-7.794000,5.298000,-22.954000,27.350000
2.435,0.314000,0.132000,0.893000,-5.282000,1.656000,-17.183000,27.350000
2.448,0.337000,0.122000,0.922000,-4.710000,-1.420000,-9.198000,27.350000
2.459,0.316000,0.103000,0.945000,-4.748000,-2.466000,0.000000,27.400000
2.466,0.266000,0.092000,0.979000,-4.092000,-1.443000,3.115000,27.310000
2.479,0.233000,0.113000,0.961000,-5.221000,4.718000,1.649000,27.260000
2.486,0.222000,0.096000,0.993000,-6.916000,8.282000,5.443000,27.260000
2.499,0.196000,0.080000,0.958000,-7.282000,14.557000,-2.702000,27.350000
2.506,0.196000,0.097000,0.922000,-5.893000,14.573000,-7.481000,27.310000
2.518,0.185000,0.104000,0.908000,-3.794000,10.534000,-8.664000,27.310000
2.525,0.236000,0.135000,0.903000,-4.496000,9.672000,-9.489000,27.310000
2.539,0.268000,0.145000,0.899000,-5.198000,14.015000,-1.412000,27.260000
2.546,0.229000,0.119000,0.867000,-4.099000,20.160000,3.466000,27.260000
2.557,0.150000,0.095000,0.868000,-1.649000,20.168000,4.618000,27.350000
2.565,0.074000,0.079000,0.872000,0.901000,14.481000,2.634000,27.210000
2.579,0.070000,0.093000,0.921000,1.176000,6.450000,-0.611000,27.310000
2.585,0.086000,0.080000,0.956000,0.695000,-0.008000,-2.260000,27.400000
2.597,0.103000,0.075000,0.969000,0.809000,-6.565000,-4.008000,27.260000
2.603,0.146000,0.084000,0.963000,0.130000,-9.061000,-7.328000,27.260000
2.616,0.200000,0.093000,0.956000,-1.069000,-9.099000,-8.496000,27.260000
2.629,0.204000,0.093000,0.932000,-4.015000,-9.000000,-6.534000,27.260000
2.636,0.247000,0.091000,0.889000,-5.115000,-6.931000,-8.618000,27.310000
2.649,0.285000,0.090000,0.878000,-3.672000,-3.420000,-8.740000,27.310000
2.655,0.277000,0.089000,0.850000,-3.817000,-1.099000,-8.061000,27.350000
2.668,0.294000,0.105000,0.874000,-4.160000,0.443000,-8.496000,27.350000
2.675,0.321000,0.131000,0.903000,-4.573000,4.397000,-5.084000,27.260000
2.689,0.344000,0.136000,0.892000,-4.336000,10.420000,0.099000,27.310000
2.695,0.300000,0.122000,0.864000,-1.916000,14.802000,9.359000,27.310000
2.707,0.231000,0.102000,0.871000,0.084000,13.443000,16.366000,27.400000
2.714,0.163000,0.070000,0.884000,3.168000,5.618000,18.458000,27.350000
2.727,0.122000,0.074000,0.924000,6.527000,-4.427000,16.504000,27.350000
2.734,0.141000,0.081000,0.960000,6.878000,-11.939000,12.931000,27.350000
2.747,0.189000,0.085000,0.982000,7.786000,-13.405000,8.496000,27.400000
2.759,0.245000,0.102000,1.021000,5.985000,-9.450000,6.679000,27.400000
2.766,0.268000,0.120000,1.050000,3.794000,-2.069000,5.931000,27.310000
2.779,0.279000,0.121000,1.059000,-1.115000,2.824000,9.252000,27.350000
2.787,0.287000,0.116000,1.055000,-5.565000,2.275000,10.664000,27.260000
2.799,0.309000,0.074000,1.015000,-5.824000,-3.046000,17.794000,27.350000
2.806,0.359000,0.084000,0.992000,-4.519000,-7.115000,24.527000,27.400000
2.818,0.407000,0.087000,0.992000,-3.901000,-5.550000,25.023000,27.310000
2.825,0.412000,0.114000,0.970000,-4.099000,1.977000,27.389000,27.310000
2.839,0.396000,0.125000,0.962000,-7.489000,4.588000,25.863000,27.450000
2.845,0.388000,0.110000,0.932000,-11.076000,6.344000,23.053000,27.260000
2.857,0.363000,0.080000,0.885000,-9.802000,-0.244000,22.832000,27.260000
2.865,0.374000,0.076000,0.898000,-7.214000,-7.519000,26.252000,27.350000
2.877,0.400000,0.122000,0.926000,-6.588000,-13.450000,27.641000,27.400000
2.889,0.479000,0.191000,0.934000,-6.008000,-13.832000,29.412000,27.400000
2.897,0.545000,0.239000,0.924000,-7.511000,-5.298000,40.366000,27.260000
2.908,0.519000,0.202000,0.878000,-11.298000,8.382000,48.015000,27.350000
2.916,0.457000,0.157000,0.842000,-9.328000,20.443000,53.954000,27.350000
2.929,0.360000,0.127000,0.843000,-5.237000,27.840000,59.527000,27.310000
2.936,0.258000,0.116000,0.838000,-3.031000,26.267000,59.542000,27.210000
2.948,0.222000,0.103000,0.862000,-1.542000,20.779000,57.092000,27.210000
2.954,0.210000,0.102000,0.883000,1.076000,13.435000,54.939000,27.350000
2.967,0.195000,0.106000,0.898000,0.672000,7.107000,50.305000,27.350000
2.974,0.185000,0.109000,0.903000,0.832000,-0.908000,44.939000,27.350000
2.987,0.217000,0.108000,0.898000,3.267000,-10.679000,43.130000,27.310000
3.004,0.283000,0.105000,0.899000,5.198000,-13.084000,39.573000,27.310000
3.006,0.338000,0.125000,0.898000,4.550000,-13.496000,40.344000,27.310000
3.019,0.374000,0.119000,0.917000,4.053000,-9.473000,45.000000,27.350000
3.026,0.376000,0.126000,0.949000,3.901000,-5.420000,52.595000,27.350000
3.039,0.349000,0.142000,0.949000,-0.267000,-0.809000,56.069000,27.260000
3.046,0.336000,0.110000,0.963000,-2.099000,3.038000,56.405000,27.310000
3.058,0.314000,0.106000,0.932000,-2.634000,5.908000,56.985000,27.310000
3.065,0.279000,0.130000,0.895000,-3.733000,4.099000,55.687000,27.310000
3.080,0.307000,0.104000,0.838000,2.473000,1.000000,53.244000,27.260000
3.085,0.333000,0.120000,0.852000,5.527000,-3.794000,55.412000,27.350000
3.098,0.360000,0.131000,0.851000,8.618000,-4.794000,60.595000,27.260000
3.105,0.374000,0.153000,0.866000,10.893000,-0.076000,67.504000,27.350000
3.117,0.353000,0.156000,0.884000,11.076000,8.412000,74.710000,27.210000
3.124,0.294000,0.159000,0.898000,8.794000,17.756000,75.405000,27.310000
3.137,0.211000,0.127000,0.903000,9.344000,19.198000,72.802000,27.260000
3.149,0.175000,0.127000,0.939000,10.947000,15.473000,72.412000,27.350000
3.156,0.157000,0.159000,0.957000,8.160000,8.435000,69.878000,27.260000
3.169,0.178000,0.139000,0.952000,6.786000,0.237000,66.763000,27.310000
3.176,0.237000,0.135000,0.930000,5.573000,-2.351000,65.267000,27.310000
3.189,0.294000,0.158000,0.925000,3.740000,-1.176000,70.031000,27.310000
3.197,0.326000,0.138000,0.878000,4.748000,7.855000,69.771000,27.350000
3.208,0.314000,0.130000,0.880000,6.328000,14.351000,70.252000,27.260000
3.216,0.251000,0.138000,0.884000,6.450000,13.298000,72.817000,27.350000
3.229,0.220000,0.128000,0.895000,6.305000,8.359000,74.359000,27.310000
3.236,0.218000,0.139000,0.927000,10.595000,4.153000,76.115000,27.210000
3.248,0.194000,0.156000,0.946000,8.901000,0.198000,77.130000,27.400000
3.255,0.217000,0.142000,0.950000,9.649000,0.115000,81.580000,27.260000
3.268,0.226000,0.149000,0.946000,9.603000,4.298000,84.405000,27.350000
3.275,0.214000,0.182000,0.928000,5.580000,9.626000,81.763000,27.350000
3.288,0.238000,0.161000,0.892000,3.115000,18.214000,74.885000,27.400000
3.295,0.281000,0.155000,0.862000,4.321000,25.634000,74.748000,27.310000
3.307,0.247000,0.154000,0.864000,7.435000,26.809000,79.672000,27.310000
3.314,0.209000,0.157000,0.884000,11.481000,22.130000,85.313000,27.350000
3.327,0.167000,0.152000,0.908000,14.893000,13.634000,94.038000,27.350000
3.339,0.117000,0.166000,0.922000,16.206000,3.313000,94.573000,27.450000
3.347,0.085000,0.147000,0.934000,17.748000,-6.305000,90.863000,27.350000
3.359,0.129000,0.151000,0.936000,18.397000,-9.695000,86.008000,27.400000
3.366,0.181000,0.194000,0.958000,17.115000,-6.237000,83.206000,27.310000
3.379,0.196000,0.182000,0.942000,15.191000,1.908000,78.275000,27.350000
3.386,0.237000,0.180000,0.943000,13.374000,14.229000,75.656000,27.350000
3.399,0.177000,0.153000,0.950000,14.588000,18.122000,80.229000,27.350000
3.405,0.104000,0.146000,0.977000,18.664000,13.885000,82.137000,27.400000
3.417,0.061000,0.175000,1.037000,19.489000,1.137000,86.351000,27.310000
3.424,0.039000,0.182000,1.062000,17.183000,-11.695000,87.481000,27.310000
3.439,0.076000,0.180000,1.065000,14.656000,-17.840000,86.389000,27.350000
3.449,0.163000,0.191000,1.050000,10.817000,-11.718000,86.695000,27.260000
3.456,0.197000,0.197000,0.988000,5.664000,2.725000,82.580000,27.350000
3.469,0.222000,0.169000,0.928000,5.389000,20.244000,77.588000,27.310000
3.476,0.178000,0.164000,0.912000,8.046000,29.565000,83.076000,27.310000
3.490,0.062000,0.143000,0.937000,13.595000,25.382000,83.718000,27.400000
3.497,0.005000,0.177000,0.992000,14.916000,12.573000,81.542000,27.350000
3.508,0.016000,0.199000,1.030000,11.496000,-1.832000,84.282000,27.350000
3.515,0.101000,0.179000,1.018000,9.931000,-4.740000,87.282000,27.350000
3.529,0.188000,0.181000,1.016000,9.176000,7.031000,84.840000,27.310000
3.535,0.184000,0.193000,1.047000,5.763000,22.389000,85.221000,27.310000
3.547,0.081000,0.181000,1.052000,2.595000,28.305000,83.282000,27.400000
3.555,0.039000,0.179000,1.047000,-2.374000,25.046000,78.031000,27.210000
3.567,0.030000,0.152000,1.016000,-5.366000,15.939000,75.267000,27.350000
3.579,0.056000,0.120000,0.975000,-3.153000,6.366000,75.542000,27.260000
3.586,0.094000,0.143000,0.955000,-1.977000,2.840000,77.244000,27.260000
3.600,0.118000,0.155000,0.970000,-0.779000,3.649000,87.832000,27.260000
3.606,0.124000,0.165000,0.975000,-0.260000,13.298000,84.939000,27.400000
3.618,0.099000,0.166000,0.967000,-1.756000,22.534000,81.099000,27.400000
3.625,0.070000,0.157000,0.955000,-3.443000,26.557000,79.092000,27.350000
3.639,0.035000,0.138000,0.956000,-2.832000,25.389000,76.046000,27.260000
3.646,0.041000,0.137000,0.939000,-2.710000,22.435000,74.496000,27.350000
3.657,0.005000,0.133000,0.946000,-1.366000,16.420000,76.626000,27.400000
3.664,-0.020000,0.152000,0.943000,0.802000,11.237000,82.069000,27.310000
3.678,-0.013000,0.190000,0.949000,-1.420000,10.489000,79.916000,27.210000
3.689,0.006000,0.179000,0.939000,-4.687000,15.237000,78.305000,27.350000
3.697,0.004000,0.170000,0.924000,-7.748000,24.595000,76.275000,27.350000
3.709,-0.001000,0.137000,0.910000,-8.832000,35.237000,70.908000,27.350000
3.716,-0.024000,0.128000,0.911000,-10.473000,42.595000,67.099000,27.310000
3.729,-0.053000,0.111000,0.898000,-11.252000,44.015000,64.595000,27.400000
3.735,-0.100000,0.102000,0.894000,-10.824000,38.267000,63.069000,27.400000
3.748,-0.114000,0.083000,0.876000,-9.237000,32.817000,61.374000,27.350000
3.753,-0.092000,0.094000,0.866000,-10.649000,23.664000,60.412000,27.260000
3.766,-0.046000,0.071000,0.849000,-7.473000,21.557000,64.962000,27.350000
3.779,-0.007000,0.073000,0.844000,-4.763000,26.458000,64.550000,27.400000
3.786,-0.009000,0.063000,0.848000,-3.328000,32.473000,64.450000,27.400000
3.799,-0.010000,0.033000,0.851000,-0.832000,38.870000,60.435000,27.310000
3.805,-0.027000,0.046000,0.871000,0.351000,39.656000,60.405000,27.350000
3.817,-0.110000,0.015000,0.886000,3.733000,28.527000,61.534000,27.350000
3.825,-0.171000,0.032000,0.895000,7.595000,10.084000,64.802000,27.350000
3.837,-0.183000,0.049000,0.927000,7.221000,-8.618000,64.687000,27.260000
3.844,-0.114000,0.047000,0.938000,5.908000,-16.206000,61.641000,27.400000
3.857,-0.034000,0.043000,0.916000,7.489000,-11.885000,62.679000,27.310000
3.869,0.023000,0.083000,0.911000,4.656000,4.305000,56.931000,27.450000
3.876,0.033000,0.072000,0.921000,2.611000,20.412000,52.924000,27.350000
3.889,-0.047000,0.062000,0.907000,0.076000,24.992000,50.115000,27.260000
3.896,-0.088000,0.056000,0.889000,2.015000,21.366000,44.695000,27.310000
3.908,-0.098000,0.053000,0.864000,3.595000,9.489000,45.366000,27.310000
3.915,-0.075000,0.022000,0.860000,7.496000,-1.351000,49.160000,27.310000
3.930,-0.017000,0.045000,0.854000,10.176000,-1.847000,52.458000,27.350000
3.935,0.032000,0.064000,0.867000,10.565000,8.595000,54.466000,27.350000
3.948,0.020000,0.076000,0.884000,10.489000,26.237000,50.794000,27.350000
3.954,-0.051000,0.068000,0.895000,10.038000,39.908000,46.931000,27.400000
3.966,-0.135000,0.040000,0.894000,9.321000,42.168000,42.046000,27.310000
3.979,-0.181000,0.015000,0.883000,11.710000,33.244000,41.977000,27.310000
3.986,-0.190000,-0.001000,0.907000,16.115000,20.618000,45.664000,27.350000
3.999,-0.188000,0.009000,0.935000,17.374000,9.473000,44.443000,27.350000
4.005,-0.157000,0.041000,0.935000,16.565000,3.878000,41.412000,27.350000
4.018,-0.107000,0.062000,0.919000,14.115000,4.015000,37.366000,27.400000
4.025,-0.076000,0.046000,0.901000,15.718000,12.321000,31.931000,27.310000
4.039,-0.088000,0.061000,0.885000,15.802000,16.763000,29.969000,27.490000
4.043,-0.146000,0.031000,0.889000,17.412000,13.947000,28.321000,27.350000
4.056,-0.201000,0.002000,0.896000,23.137000,4.267000,26.069000,27.350000
4.069,-0.202000,0.026000,0.936000,25.557000,-4.275000,21.267000,27.450000
4.076,-0.149000,0.046000,0.913000,27.183000,-8.939000,16.466000,27.450000
4.089,-0.078000,0.086000,0.918000,27.000000,-2.244000,12.542000,27.310000
4.097,-0.043000,0.111000,0.928000,27.008000,7.603000,15.252000,27.400000
4.107,-0.055000,0.109000,0.937000,28.244000,16.908000,16.489000,27.350000
4.114,-0.068000,0.162000,0.984000,25.191000,19.687000,14.939000,27.450000
4.127,-0.084000,0.156000,1.032000,18.969000,17.847000,18.786000,27.350000
4.139,-0.049000,0.163000,1.016000,11.824000,14.542000,19.076000,27.400000
4.147,0.012000,0.120000,0.952000,9.145000,10.252000,29.504000,27.310000
4.159,0.055000,0.106000,0.893000,9.137000,12.290000,35.710000,27.310000
4.166,0.104000,0.103000,0.841000,9.099000,21.427000,40.176000,27.450000
4.180,0.120000,0.118000,0.830000,10.000000,36.466000,43.382000,27.350000
4.186,0.064000,0.159000,0.849000,9.221000,52.328000,45.420000,27.350000
4.199,-0.031000,0.141000,0.876000,9.725000,63.015000,48.718000,27.400000
4.205,-0.106000,0.132000,0.878000,8.496000,68.832000,48.389000,27.400000
4.217,-0.137000,0.134000,0.831000,6.786000,66.466000,48.061000,27.310000
4.225,-0.152000,0.097000,0.786000,9.321000,62.389000,46.718000,27.350000
4.237,-0.187000,0.049000,0.738000,13.794000,53.969000,47.321000,27.350000
4.249,-0.227000,0.041000,0.740000,21.023000,40.557000,49.183000,27.350000
4.256,-0.283000,0.074000,0.773000,28.092000,22.649000,51.328000,27.310000
4.269,-0.303000,0.132000,0.847000,31.634000,7.450000,52.107000,27.400000
4.276,-0.303000,0.122000,0.913000,36.107000,-3.015000,52.832000,27.310000
4.290,-0.288000,0.130000,0.974000,35.863000,-4.076000,52.809000,27.450000
4.296,-0.257000,0.170000,1.014000,30.321000,1.038000,48.542000,27.350000
4.307,-0.248000,0.151000,1.003000,23.107000,11.977000,40.344000,27.450000
4.314,-0.246000,0.129000,0.991000,18.847000,21.733000,33.817000,27.260000
4.327,-0.255000,0.132000,0.963000,18.969000,28.015000,27.221000,27.400000
4.339,-0.270000,0.132000,0.963000,19.191000,26.969000,24.740000,27.400000
4.347,-0.229000,0.163000,0.940000,18.145000,24.634000,23.802000,27.350000
4.358,-0.211000,0.132000,0.906000,19.656000,20.176000,21.824000,27.350000
4.365,-0.199000,0.140000,0.885000,24.588000,15.855000,22.786000,27.350000
4.379,-0.189000,0.163000,0.893000,25.901000,12.130000,27.954000,27.400000
4.385,-0.197000,0.152000,0.911000,29.817000,12.221000,28.053000,27.400000
4.397,-0.223000,0.201000,0.955000,29.916000,16.008000,28.305000,27.400000
4.404,-0.286000,0.184000,0.981000,27.588000,18.176000,27.863000,27.350000
4.416,-0.312000,0.201000,0.986000,22.626000,24.206000,23.802000,27.350000
4.429,-0.333000,0.168000,0.988000,19.084000,30.618000,23.878000,27.350000
4.436,-0.437000,0.131000,0.980000,18.656000,31.092000,31.099000,27.400000
4.449,-0.579000,0.119000,1.007000,18.527000,21.366000,37.794000,27.400000
4.455,-0.758000,0.082000,0.995000,19.771000,-5.252000,37.534000,27.310000
4.467,-0.853000,0.068000,0.981000,30.008000,-47.450000,19.687000,27.350000
4.474,-0.796000,0.140000,1.008000,39.550000,-91.191000,-5.947000,27.260000
4.487,-0.540000,0.229000,1.031000,41.084000,-114.718000,-28.893000,27.350000
4.499,-0.281000,0.347000,1.044000,31.756000,-117.489000,-49.718000,27.400000
4.505,-0.081000,0.407000,1.008000,13.473000,-109.275000,-64.191000,27.400000
4.518,0.053000,0.315000,0.938000,4.748000,-96.947000,-74.496000,27.310000
4.524,0.146000,0.281000,0.907000,7.321000,-90.214000,-68.626000,27.350000
4.537,0.173000,0.215000,0.896000,18.008000,-91.344000,-47.305000,27.350000
4.549,0.174000,0.192000,0.913000,26.275000,-101.000000,-13.672000,27.350000
4.556,0.174000,0.247000,0.951000,25.702000,-103.168000,8.817000,27.350000
4.568,0.212000,0.327000,0.965000,13.977000,-89.763000,24.206000,27.260000
4.575,0.221000,0.269000,0.910000,6.237000,-66.153000,24.344000,27.400000
4.588,0.202000,0.283000,0.876000,6.466000,-34.595000,15.802000,27.350000
4.595,0.101000,0.256000,0.856000,6.664000,-14.244000,5.496000,27.350000
4.607,0.007000,0.201000,0.904000,13.855000,-9.084000,-7.313000,27.350000
4.614,-0.045000,0.224000,0.981000,20.634000,-17.405000,-10.160000,27.350000
4.626,-0.062000,0.244000,1.043000,19.053000,-33.557000,-7.885000,27.400000
4.640,-0.014000,0.264000,1.084000,14.626000,-47.382000,-0.939000,27.310000
4.652,0.059000,0.281000,1.111000,8.481000,-50.023000,8.427000,27.400000
4.659,0.123000,0.322000,1.077000,-3.397000,-35.771000,10.901000,27.350000
4.665,0.136000,0.315000,0.993000,-16.611000,-15.885000,8.359000,27.350000
4.679,0.127000,0.245000,0.903000,-15.649000,2.420000,-4.252000,27.350000
4.686,0.095000,0.246000,0.876000,-9.076000,11.565000,-11.733000,27.400000
4.698,0.034000,0.236000,0.882000,-4.290000,5.099000,-13.435000,27.400000
4.705,0.002000,0.215000,0.906000,-0.855000,-8.702000,-11.595000,27.400000
4.716,0.009000,0.212000,0.953000,6.885000,-23.595000,-8.321000,27.350000
4.729,0.045000,0.243000,1.025000,5.084000,-32.473000,-2.962000,27.260000
4.736,0.109000,0.333000,1.054000,-6.168000,-26.443000,2.931000,27.350000
4.748,0.127000,0.296000,0.997000,-16.069000,-12.389000,5.046000,27.400000
4.755,0.127000,0.261000,0.925000,-17.466000,4.260000,1.901000,27.400000
4.775,0.073000,0.261000,0.880000,-16.229000,14.214000,-4.527000,27.400000
4.775,0.034000,0.234000,0.866000,-13.122000,14.756000,-10.542000,27.350000
