time_sec,ax,ay,az,gx,gy,gz,temp_c
0.012,-0.152000,0.114000,0.980000,2.969000,-14.489000,-1.679000,28.480000
0.019,-0.116000,0.129000,0.968000,1.015000,-11.046000,-4.023000,28.390000
0.031,-0.081000,0.148000,0.932000,-2.634000,-3.145000,-8.099000,28.480000
0.038,-0.044000,0.129000,0.885000,-0.443000,2.573000,-15.580000,28.440000
0.051,-0.042000,0.125000,0.880000,1.977000,2.504000,-18.359000,28.530000
0.058,-0.035000,0.125000,0.893000,4.122000,-3.840000,-16.511000,28.390000
0.070,-0.002000,0.143000,0.927000,5.344000,-10.000000,-9.382000,28.480000
0.085,0.019000,0.145000,0.957000,5.427000,-13.588000,1.916000,28.440000
0.090,0.002000,0.149000,0.967000,4.550000,-11.985000,9.076000,28.440000
0.102,-0.025000,0.151000,0.972000,0.702000,-7.313000,14.962000,28.480000
0.111,-0.075000,0.119000,0.946000,-0.840000,-1.076000,13.267000,28.580000
0.122,-0.097000,0.117000,0.928000,0.130000,4.450000,7.435000,28.390000
0.129,-0.123000,0.111000,0.925000,1.092000,6.603000,1.298000,28.480000
0.141,-0.136000,0.111000,0.947000,1.626000,5.740000,-4.221000,28.340000
0.149,-0.134000,0.115000,0.971000,2.618000,2.840000,-7.145000,28.390000
0.161,-0.107000,0.112000,0.985000,0.519000,-0.107000,-5.443000,28.390000
0.168,-0.087000,0.089000,0.979000,-0.076000,-0.397000,-3.038000,28.390000
0.181,-0.093000,0.089000,0.977000,2.481000,-0.450000,-3.038000,28.530000
0.187,-0.132000,0.094000,0.980000,3.237000,-3.237000,-2.786000,28.530000
0.200,-0.129000,0.103000,0.969000,2.893000,-4.389000,-6.924000,28.390000
0.212,-0.082000,0.131000,0.979000,0.863000,-3.267000,-6.405000,28.480000
0.220,-0.052000,0.135000,0.968000,-1.511000,1.389000,-6.893000,28.390000
0.232,-0.069000,0.138000,0.961000,-1.649000,4.237000,-8.771000,28.340000
0.239,-0.091000,0.122000,0.945000,0.176000,3.130000,-11.763000,28.440000
0.251,-0.110000,0.110000,0.957000,1.405000,-3.885000,-15.550000,28.480000
0.258,-0.101000,0.106000,0.959000,3.725000,-10.656000,-13.771000,28.480000
0.271,-0.086000,0.108000,0.966000,4.275000,-17.595000,-8.527000,28.440000
0.277,-0.096000,0.116000,0.979000,4.031000,-21.649000,-5.802000,28.440000
0.291,-0.085000,0.135000,0.979000,1.069000,-18.817000,-6.260000,28.440000
0.302,-0.079000,0.161000,0.983000,-4.000000,-11.168000,-11.015000,28.480000
0.309,-0.055000,0.156000,0.981000,-9.229000,1.084000,-18.061000,28.390000
0.322,-0.068000,0.144000,0.984000,-12.687000,12.008000,-24.008000,28.480000
0.329,-0.094000,0.113000,0.964000,-13.351000,14.687000,-27.244000,28.530000
0.340,-0.114000,0.086000,0.945000,-14.458000,10.069000,-26.504000,28.440000
0.352,-0.105000,0.081000,0.941000,-13.992000,2.214000,-20.603000,28.480000
0.359,-0.085000,0.066000,0.899000,-11.351000,-4.870000,-15.901000,28.480000
0.372,-0.083000,0.067000,0.884000,-6.427000,-8.985000,-13.336000,28.440000
0.379,-0.094000,0.099000,0.853000,-4.519000,-13.855000,-14.351000,28.440000
0.391,-0.039000,0.109000,0.841000,-1.130000,-14.817000,-17.260000,28.530000
0.403,-0.006000,0.109000,0.846000,3.748000,-15.481000,-17.282000,28.390000
0.410,0.010000,0.109000,0.862000,5.435000,-14.092000,-14.947000,28.480000
0.422,0.020000,0.113000,0.890000,4.656000,-10.916000,-10.641000,28.440000
0.429,0.006000,0.101000,0.917000,4.305000,-6.962000,-5.176000,28.440000
0.442,-0.031000,0.112000,0.946000,4.878000,-4.748000,1.008000,28.440000
0.449,-0.083000,0.111000,0.963000,1.336000,1.031000,4.237000,28.480000
0.461,-0.113000,0.103000,0.955000,-1.458000,6.985000,5.771000,28.580000
0.469,-0.152000,0.095000,0.938000,-2.656000,12.130000,4.053000,28.440000
0.481,-0.197000,0.080000,0.913000,-3.939000,15.115000,-0.695000,28.440000
0.489,-0.225000,0.068000,0.887000,-4.344000,16.351000,-5.802000,28.440000
0.500,-0.283000,0.052000,0.882000,-2.382000,8.870000,-11.374000,28.480000
0.513,-0.280000,0.055000,0.898000,1.511000,1.260000,-20.031000,28.390000
0.520,-0.237000,0.071000,0.907000,3.786000,-7.023000,-21.252000,28.580000
0.532,-0.173000,0.060000,0.900000,4.511000,-8.824000,-25.733000,28.440000
0.539,-0.102000,0.081000,0.907000,5.275000,-7.115000,-25.252000,28.440000
0.551,-0.064000,0.091000,0.904000,5.412000,-1.519000,-23.672000,28.390000
0.558,-0.051000,0.094000,0.909000,4.824000,4.382000,-22.382000,28.580000
0.571,-0.086000,0.104000,0.908000,4.183000,6.786000,-17.252000,28.480000
0.578,-0.132000,0.100000,0.925000,4.687000,4.626000,-14.191000,28.440000
0.591,-0.169000,0.103000,0.918000,5.992000,0.786000,-15.725000,28.440000
0.603,-0.187000,0.092000,0.937000,5.786000,-4.405000,-17.351000,28.390000
0.610,-0.188000,0.105000,0.940000,5.779000,-7.603000,-19.374000,28.480000
0.622,-0.163000,0.109000,0.953000,4.252000,-5.191000,-24.679000,28.440000
0.629,-0.157000,0.109000,0.959000,4.260000,-2.313000,-29.084000,28.440000
0.642,-0.171000,0.098000,0.953000,5.557000,-3.153000,-31.023000,28.440000
0.649,-0.175000,0.097000,0.955000,7.634000,-7.290000,-32.718000,28.480000
0.661,-0.164000,0.100000,0.972000,9.618000,-14.687000,-34.176000,28.480000
0.666,-0.140000,0.113000,0.988000,9.038000,-22.374000,-33.427000,28.530000
0.680,-0.085000,0.119000,1.000000,7.153000,-25.725000,-30.008000,28.530000
0.692,-0.061000,0.114000,0.991000,7.031000,-24.198000,-29.221000,28.440000
0.700,-0.052000,0.135000,0.982000,6.076000,-18.519000,-30.473000,28.480000
0.711,-0.038000,0.144000,0.983000,2.542000,-11.275000,-31.000000,28.390000
0.718,-0.032000,0.125000,0.968000,1.580000,-4.305000,-31.382000,28.480000
0.731,-0.056000,0.130000,0.950000,0.847000,-1.084000,-31.870000,28.530000
0.743,-0.084000,0.125000,0.953000,-0.634000,-0.565000,-29.252000,28.480000
0.750,-0.132000,0.119000,0.956000,-0.321000,-4.664000,-27.053000,28.480000
0.762,-0.159000,0.122000,0.969000,1.527000,-11.740000,-27.672000,28.390000
0.769,-0.141000,0.135000,0.981000,0.679000,-16.779000,-26.992000,28.340000
0.782,-0.126000,0.137000,0.963000,0.282000,-19.015000,-30.000000,28.530000
0.789,-0.097000,0.133000,0.951000,0.916000,-17.893000,-34.466000,28.390000
0.800,-0.053000,0.142000,0.952000,-2.496000,-13.267000,-37.382000,28.480000
0.813,-0.035000,0.123000,0.940000,-5.939000,-9.214000,-38.405000,28.480000
0.819,-0.017000,0.128000,0.925000,-6.534000,-2.672000,-37.153000,28.440000
0.832,-0.036000,0.140000,0.916000,-8.443000,-0.962000,-30.061000,28.530000
0.839,-0.069000,0.136000,0.927000,-9.840000,-0.412000,-31.023000,28.390000
0.851,-0.066000,0.137000,0.928000,-9.137000,0.244000,-32.435000,28.390000
0.858,-0.090000,0.126000,0.932000,-7.214000,-2.282000,-34.565000,28.530000
0.870,-0.086000,0.123000,0.924000,-4.237000,-5.947000,-37.473000,28.440000
0.882,-0.080000,0.132000,0.923000,-2.267000,-10.153000,-36.443000,28.440000
0.890,-0.087000,0.115000,0.905000,0.046000,-13.756000,-39.176000,28.480000
0.901,-0.053000,0.138000,0.937000,0.595000,-13.237000,-41.237000,28.480000
0.908,-0.032000,0.135000,0.957000,-0.885000,-10.786000,-41.328000,28.480000
0.920,-0.043000,0.114000,0.964000,0.840000,-7.672000,-44.061000,28.440000
0.928,-0.039000,0.142000,0.992000,0.092000,-6.901000,-44.351000,28.530000
0.941,-0.045000,0.126000,1.006000,-4.817000,-6.802000,-41.718000,28.480000
0.952,-0.033000,0.125000,0.986000,-7.817000,-4.198000,-40.618000,28.480000
0.959,-0.018000,0.128000,0.952000,-10.489000,0.244000,-34.252000,28.530000
0.972,-0.065000,0.123000,0.935000,-12.176000,1.313000,-26.176000,28.440000
0.979,-0.149000,0.113000,0.920000,-10.191000,-1.924000,-25.611000,28.480000
0.990,-0.159000,0.124000,0.955000,-8.489000,-4.160000,-34.328000,28.480000
1.003,-0.167000,0.101000,0.961000,-9.115000,-9.122000,-43.473000,28.480000
1.009,-0.133000,0.074000,0.946000,-6.870000,-13.130000,-50.206000,28.530000
1.022,-0.077000,0.078000,0.943000,-4.763000,-14.076000,-51.214000,28.440000
1.029,-0.064000,0.078000,0.944000,-4.595000,-14.359000,-47.160000,28.480000
1.041,-0.060000,0.106000,0.937000,-5.809000,-10.779000,-43.878000,28.390000
1.053,-0.071000,0.130000,0.939000,-9.939000,-6.817000,-39.290000,28.480000
1.060,-0.136000,0.125000,0.923000,-10.687000,-7.176000,-39.084000,28.530000
1.072,-0.143000,0.133000,0.915000,-9.496000,-5.595000,-43.718000,28.530000
1.079,-0.147000,0.140000,0.935000,-11.427000,-6.656000,-48.153000,28.480000
1.092,-0.145000,0.116000,0.918000,-11.519000,-7.321000,-55.000000,28.390000
1.099,-0.096000,0.108000,0.924000,-9.061000,-5.679000,-53.672000,28.580000
1.110,-0.110000,0.118000,0.899000,-9.916000,-7.786000,-54.634000,28.440000
1.122,-0.068000,0.105000,0.909000,-7.412000,-7.863000,-57.176000,28.440000
1.130,-0.054000,0.122000,0.906000,-6.191000,-8.137000,-56.672000,28.390000
1.143,-0.037000,0.119000,0.915000,-8.649000,-8.023000,-55.107000,28.480000
1.149,-0.019000,0.102000,0.897000,-7.130000,-8.038000,-53.351000,28.440000
1.161,-0.023000,0.106000,0.897000,-4.321000,-7.511000,-51.374000,28.530000
1.175,-0.056000,0.104000,0.918000,-2.076000,-12.527000,-49.496000,28.390000
1.180,-0.083000,0.098000,0.922000,3.313000,-19.794000,-47.527000,28.480000
1.192,-0.072000,0.113000,0.938000,4.099000,-23.756000,-51.305000,28.580000
1.199,-0.037000,0.095000,0.945000,4.855000,-26.756000,-54.786000,28.340000
1.211,-0.003000,0.074000,0.944000,6.931000,-25.290000,-58.008000,28.440000
1.218,0.053000,0.117000,0.956000,5.450000,-18.611000,-59.267000,28.480000
1.231,0.048000,0.114000,0.959000,4.221000,-17.511000,-54.168000,28.390000
1.243,0.016000,0.111000,0.980000,5.618000,-19.870000,-49.603000,28.390000
1.250,-0.010000,0.129000,0.995000,6.679000,-27.237000,-44.420000,28.530000
1.262,-0.024000,0.127000,1.005000,5.809000,-35.275000,-40.504000,28.530000
1.269,-0.021000,0.129000,1.006000,5.290000,-42.328000,-37.527000,28.390000
1.281,0.016000,0.157000,0.987000,2.023000,-40.076000,-37.908000,28.480000
1.288,0.060000,0.134000,0.982000,-2.427000,-32.237000,-37.634000,28.480000
1.300,0.064000,0.125000,0.962000,-2.947000,-19.313000,-41.733000,28.440000
1.313,0.060000,0.149000,0.976000,-5.885000,-4.718000,-44.863000,28.440000
1.320,-0.013000,0.147000,0.990000,-8.901000,1.023000,-45.855000,28.480000
1.333,-0.053000,0.146000,0.990000,-6.840000,1.046000,-46.450000,28.390000
1.339,-0.047000,0.181000,1.016000,-11.008000,-0.939000,-47.267000,28.440000
1.351,-0.013000,0.170000,1.011000,-15.534000,-5.244000,-45.962000,28.440000
1.358,0.025000,0.138000,0.973000,-15.664000,-5.122000,-45.305000,28.530000
1.370,0.045000,0.106000,0.927000,-14.779000,-4.130000,-44.870000,28.390000
1.383,0.039000,0.099000,0.899000,-10.565000,-0.542000,-46.618000,28.580000
1.390,0.046000,0.101000,0.879000,-12.618000,2.947000,-46.275000,28.440000
1.402,0.035000,0.125000,0.896000,-12.366000,6.771000,-45.229000,28.340000
1.409,0.007000,0.138000,0.912000,-10.336000,8.824000,-45.099000,28.480000
1.422,0.000000,0.166000,0.945000,-11.115000,10.954000,-44.809000,28.390000
1.429,0.020000,0.162000,0.945000,-16.008000,14.565000,-46.504000,28.480000
1.440,0.032000,0.130000,0.925000,-16.916000,19.321000,-47.527000,28.440000
1.453,0.010000,0.103000,0.902000,-13.511000,18.565000,-47.122000,28.440000
1.459,-0.029000,0.069000,0.892000,-10.099000,13.489000,-49.298000,28.480000
1.472,-0.084000,0.066000,0.905000,-4.382000,0.519000,-52.794000,28.480000
1.479,-0.101000,0.100000,0.886000,-3.565000,-15.000000,-57.237000,28.390000
1.491,-0.037000,0.086000,0.925000,-2.779000,-25.282000,-57.710000,28.440000
1.497,0.033000,0.109000,0.937000,-0.756000,-26.802000,-61.168000,28.620000
1.510,0.096000,0.135000,0.951000,-1.733000,-22.351000,-58.481000,28.580000
1.522,0.137000,0.147000,0.961000,-6.069000,-12.389000,-58.817000,28.480000
1.530,0.121000,0.122000,0.979000,-7.092000,-1.893000,-59.267000,28.440000
1.542,0.071000,0.124000,0.970000,-6.420000,1.351000,-59.252000,28.440000
1.548,0.031000,0.129000,0.974000,-6.954000,-3.840000,-59.115000,28.530000
1.561,0.057000,0.112000,0.961000,-7.580000,-7.740000,-57.908000,28.580000
1.568,0.074000,0.141000,0.960000,-9.664000,-11.496000,-55.931000,28.480000
1.581,0.089000,0.122000,0.946000,-9.832000,-11.557000,-54.214000,28.440000
1.592,0.119000,0.144000,0.958000,-12.473000,-4.725000,-53.275000,28.440000
1.599,0.130000,0.144000,0.940000,-13.939000,5.672000,-52.611000,28.530000
1.611,0.097000,0.138000,0.945000,-12.107000,15.298000,-49.725000,28.480000
1.618,0.028000,0.127000,0.932000,-9.160000,16.664000,-44.702000,28.480000
1.631,-0.051000,0.103000,0.927000,-8.580000,11.511000,-43.191000,28.530000
1.638,-0.102000,0.066000,0.936000,-5.550000,3.557000,-45.916000,28.530000
1.650,-0.083000,0.099000,0.921000,-8.565000,-5.321000,-49.626000,28.440000
1.662,-0.057000,0.087000,0.950000,-9.969000,-9.649000,-53.550000,28.480000
1.669,0.017000,0.092000,0.952000,-8.931000,-3.542000,-58.916000,28.390000
1.682,0.022000,0.081000,0.956000,-7.206000,0.550000,-58.656000,28.390000
1.689,-0.010000,0.101000,0.958000,-3.809000,0.672000,-61.863000,28.440000
1.701,-0.022000,0.133000,0.994000,-3.733000,-6.969000,-60.947000,28.480000
1.708,-0.011000,0.124000,1.012000,-9.840000,-15.977000,-57.061000,28.480000
1.720,0.043000,0.098000,0.994000,-14.107000,-20.664000,-51.534000,28.480000
1.732,0.092000,0.090000,0.996000,-16.031000,-17.740000,-48.176000,28.440000
1.739,0.079000,0.052000,0.972000,-15.733000,-12.351000,-45.779000,28.440000
1.751,0.063000,0.056000,0.961000,-14.313000,-7.718000,-50.115000,28.480000
1.758,0.054000,0.084000,0.956000,-13.573000,-6.344000,-55.473000,28.580000
1.770,0.048000,0.086000,0.954000,-13.305000,-5.527000,-57.229000,28.580000
1.783,0.010000,0.072000,0.962000,-13.656000,-10.580000,-54.473000,28.440000
1.789,-0.035000,0.054000,0.953000,-12.260000,-16.542000,-52.763000,28.440000
1.801,-0.062000,0.039000,0.922000,-6.626000,-22.084000,-55.282000,28.480000
1.808,0.020000,0.055000,0.908000,-16.267000,-21.374000,-60.634000,28.480000
1.821,0.085000,0.050000,0.923000,-13.397000,-11.374000,-65.603000,28.480000
1.834,0.120000,0.080000,0.923000,-11.809000,-6.160000,-67.840000,28.440000
1.840,0.101000,0.088000,0.896000,-10.565000,-4.000000,-66.664000,28.530000
1.852,0.046000,0.067000,0.876000,-7.153000,-10.053000,-61.672000,28.480000
1.859,0.007000,0.041000,0.865000,-5.107000,-22.550000,-58.366000,28.480000
1.871,0.014000,0.029000,0.868000,-4.832000,-30.183000,-59.817000,28.480000
1.878,0.083000,0.053000,0.896000,-0.878000,-28.313000,-61.015000,28.440000
1.891,0.148000,0.085000,0.916000,-0.695000,-21.618000,-60.298000,28.440000
1.902,0.201000,0.093000,0.906000,-1.672000,-7.221000,-62.786000,28.390000
1.909,0.207000,0.099000,0.886000,-1.649000,3.321000,-61.290000,28.390000
1.922,0.139000,0.050000,0.859000,0.740000,7.710000,-57.947000,28.440000
1.930,0.084000,0.038000,0.842000,-0.748000,3.198000,-57.328000,28.440000
1.942,0.069000,0.047000,0.843000,0.427000,-5.802000,-59.107000,28.440000
1.949,0.112000,0.038000,0.817000,4.206000,-13.656000,-61.122000,28.480000
1.961,0.182000,0.055000,0.794000,5.389000,-17.458000,-64.481000,28.390000
1.968,0.250000,0.050000,0.791000,10.565000,-20.519000,-61.763000,28.530000
1.981,0.259000,0.037000,0.793000,15.557000,-20.084000,-58.031000,28.440000
1.993,0.221000,0.018000,0.824000,19.916000,-24.565000,-54.107000,28.530000
1.999,0.192000,0.046000,0.875000,22.061000,-32.031000,-52.160000,28.480000
2.012,0.191000,0.063000,0.939000,21.618000,-39.817000,-54.137000,28.480000
2.018,0.252000,0.086000,0.966000,20.321000,-43.000000,-57.023000,28.530000
2.031,0.317000,0.111000,1.000000,16.954000,-40.443000,-59.565000,28.530000
2.037,0.390000,0.104000,1.012000,17.901000,-31.046000,-57.924000,28.390000
2.050,0.407000,0.118000,1.067000,15.092000,-19.252000,-47.878000,28.480000
2.062,0.311000,0.114000,1.105000,8.435000,-12.466000,-35.855000,28.580000
2.069,0.251000,0.111000,1.134000,-2.466000,-2.183000,-30.168000,28.480000
2.082,0.182000,0.105000,1.122000,-10.511000,5.053000,-29.702000,28.440000
2.089,0.186000,0.090000,1.088000,-14.794000,17.863000,-34.573000,28.480000
2.101,0.180000,0.120000,1.049000,-18.901000,29.870000,-39.924000,28.480000
2.106,0.161000,0.114000,0.976000,-16.397000,41.603000,-43.916000,28.480000
2.120,0.129000,0.054000,0.964000,-14.389000,43.229000,-40.473000,28.530000
2.132,0.036000,0.034000,0.926000,-12.168000,33.542000,-39.939000,28.530000
2.139,-0.007000,0.014000,0.928000,-9.244000,17.160000,-41.489000,28.580000
2.151,-0.010000,0.027000,0.922000,-9.107000,-1.588000,-42.389000,28.480000
2.158,0.095000,0.060000,0.943000,-7.527000,-12.618000,-46.679000,28.440000
2.171,0.217000,0.107000,0.956000,-7.489000,-9.000000,-51.748000,28.530000
2.177,0.350000,0.117000,0.994000,-5.344000,4.504000,-53.466000,28.440000
2.190,0.397000,0.086000,1.021000,-6.458000,11.756000,-49.229000,28.480000
2.202,0.359000,0.098000,0.935000,-7.366000,21.061000,-43.191000,28.480000
2.209,0.291000,0.015000,0.890000,-6.779000,18.870000,-35.374000,28.440000
2.222,0.230000,0.034000,0.869000,-1.641000,12.344000,-31.863000,28.530000
2.229,0.201000,0.048000,0.875000,-0.305000,-0.351000,-29.924000,28.440000
2.241,0.232000,0.050000,0.904000,1.641000,-8.038000,-31.664000,28.480000
2.248,0.294000,0.071000,0.918000,4.893000,-13.298000,-28.824000,28.480000
2.260,0.334000,0.070000,0.931000,7.115000,-13.260000,-24.397000,28.480000
2.275,0.317000,0.049000,0.916000,9.863000,-11.664000,-20.672000,28.440000
2.280,0.232000,0.047000,0.934000,10.733000,-17.672000,-18.634000,28.480000
2.293,0.219000,0.076000,0.961000,10.634000,-22.779000,-20.244000,28.480000
2.299,0.260000,0.095000,0.990000,7.145000,-23.924000,-20.198000,28.530000
2.311,0.302000,0.102000,0.973000,4.824000,-20.008000,-18.878000,28.530000
2.318,0.374000,0.126000,0.986000,1.901000,-9.534000,-14.000000,28.440000
2.331,0.379000,0.129000,0.942000,-2.557000,4.947000,-8.672000,28.480000
2.339,0.324000,0.099000,0.910000,-0.557000,17.435000,-3.290000,28.480000
2.350,0.222000,0.044000,0.878000,3.046000,21.679000,1.427000,28.440000
2.358,0.093000,0.021000,0.920000,7.366000,13.473000,0.664000,28.440000
2.370,0.016000,0.039000,0.938000,7.580000,-0.855000,-3.649000,28.440000
2.383,-0.008000,0.059000,0.919000,8.008000,-17.344000,-7.794000,28.580000
2.390,0.125000,0.066000,0.896000,4.573000,-19.718000,-14.405000,28.390000
2.402,0.277000,0.092000,0.905000,15.489000,-2.137000,-14.832000,28.440000
2.409,0.323000,0.089000,0.931000,5.710000,3.710000,-16.405000,28.530000
2.422,0.310000,0.057000,0.916000,4.061000,11.863000,-11.641000,28.480000
2.429,0.219000,0.017000,0.951000,7.939000,12.450000,-7.122000,28.480000
2.442,0.124000,0.039000,0.987000,9.069000,1.496000,-3.687000,28.480000
2.448,0.078000,0.036000,0.971000,5.534000,-13.733000,-2.527000,28.480000
2.461,0.157000,0.019000,1.009000,8.519000,-24.641000,0.931000,28.530000
2.468,0.235000,0.020000,1.017000,12.366000,-31.916000,3.718000,28.390000
2.480,0.242000,0.069000,1.014000,11.466000,-26.000000,5.290000,28.480000
2.494,0.221000,0.097000,0.994000,11.679000,-19.656000,5.481000,28.480000
2.500,0.202000,0.092000,1.019000,4.756000,-12.336000,0.176000,28.440000
2.512,0.192000,0.055000,0.992000,-2.489000,-9.565000,-6.038000,28.440000
2.519,0.243000,0.052000,0.965000,-4.244000,-0.122000,-12.977000,28.480000
2.532,0.267000,0.052000,0.915000,-3.023000,3.534000,-13.366000,28.390000
2.539,0.290000,0.072000,0.893000,-2.672000,8.733000,-11.443000,28.530000
2.551,0.271000,0.058000,0.867000,-1.061000,10.130000,-6.702000,28.440000
2.558,0.242000,0.035000,0.878000,3.382000,7.672000,-3.137000,28.480000
2.571,0.188000,0.050000,0.887000,5.893000,-0.534000,0.405000,28.480000
2.578,0.172000,0.037000,0.891000,7.718000,-8.901000,0.588000,28.480000
2.591,0.187000,0.044000,0.910000,10.023000,-15.542000,-0.489000,28.440000
2.597,0.238000,0.081000,0.944000,11.229000,-15.893000,-0.733000,28.440000
2.610,0.287000,0.122000,0.964000,6.313000,-8.977000,0.000000,28.480000
2.625,0.295000,0.097000,0.963000,3.015000,-0.008000,3.282000,28.390000
2.630,0.265000,0.076000,0.939000,2.649000,9.809000,4.397000,28.480000
2.643,0.220000,0.061000,0.912000,2.489000,10.802000,6.069000,28.530000
2.650,0.181000,0.042000,0.909000,3.595000,5.237000,6.756000,28.440000
2.663,0.173000,0.061000,0.933000,4.969000,-5.084000,9.969000,28.580000
2.670,0.211000,0.087000,0.964000,3.252000,-10.519000,10.366000,28.480000
2.682,0.278000,0.095000,0.977000,0.550000,-10.756000,10.649000,28.440000
2.690,0.341000,0.076000,0.967000,0.916000,-6.275000,13.046000,28.530000
2.702,0.357000,0.096000,0.958000,1.321000,-1.550000,14.405000,28.530000
2.709,0.340000,0.106000,0.959000,1.794000,1.595000,14.336000,28.480000
2.722,0.336000,0.125000,0.946000,0.511000,2.435000,13.267000,28.480000
2.729,0.333000,0.117000,0.938000,-3.542000,0.168000,13.969000,28.390000
2.741,0.350000,0.095000,0.920000,-2.031000,-1.008000,16.580000,28.440000
2.748,0.365000,0.108000,0.913000,-0.473000,-0.267000,22.359000,28.440000
2.761,0.390000,0.115000,0.909000,-0.260000,4.725000,26.221000,28.480000
2.768,0.386000,0.103000,0.916000,-0.916000,8.282000,27.809000,28.480000
2.780,0.352000,0.080000,0.908000,0.802000,9.229000,28.290000,28.480000
2.794,0.337000,0.095000,0.927000,4.000000,4.351000,29.214000,28.530000
2.801,0.314000,0.117000,0.915000,6.168000,-2.672000,27.275000,28.340000
2.813,0.361000,0.140000,0.920000,5.771000,-8.412000,30.489000,28.390000
2.820,0.374000,0.142000,0.904000,5.809000,-11.076000,37.626000,28.390000
2.833,0.393000,0.159000,0.891000,3.992000,-4.733000,38.305000,28.390000
2.841,0.419000,0.138000,0.900000,1.855000,6.840000,40.443000,28.480000
2.852,0.382000,0.090000,0.901000,1.557000,18.901000,39.298000,28.440000
2.859,0.318000,0.103000,0.924000,3.985000,26.702000,40.008000,28.480000
2.872,0.226000,0.087000,0.906000,6.267000,24.947000,37.931000,28.480000
2.879,0.149000,0.058000,0.914000,7.061000,12.786000,32.863000,28.440000
2.892,0.144000,0.054000,0.888000,3.573000,-8.321000,29.275000,28.530000
2.899,0.187000,0.038000,0.896000,8.656000,-27.947000,26.519000,28.340000
2.911,0.291000,0.070000,0.882000,8.832000,-41.366000,26.183000,28.390000
2.918,0.406000,0.106000,0.928000,11.076000,-45.214000,32.794000,28.480000
2.930,0.461000,0.167000,0.901000,8.695000,-39.344000,36.160000,28.440000
2.943,0.539000,0.198000,0.937000,6.351000,-27.496000,41.221000,28.340000
2.950,0.545000,0.187000,0.894000,1.374000,-12.237000,45.374000,28.440000
2.963,0.528000,0.159000,0.854000,0.634000,1.702000,48.504000,28.480000
2.970,0.470000,0.161000,0.823000,2.504000,8.847000,53.985000,28.480000
2.983,0.408000,0.163000,0.822000,3.809000,11.863000,59.916000,28.440000
2.990,0.352000,0.149000,0.847000,7.221000,9.374000,67.336000,28.530000
3.002,0.295000,0.149000,0.863000,9.916000,5.939000,69.389000,28.440000
3.009,0.296000,0.160000,0.867000,11.931000,6.794000,68.458000,28.580000
3.022,0.285000,0.166000,0.885000,11.809000,8.618000,70.710000,28.480000
3.030,0.285000,0.174000,0.885000,11.397000,14.244000,70.366000,28.390000
3.042,0.295000,0.162000,0.907000,11.725000,22.298000,71.031000,28.440000
3.048,0.261000,0.153000,0.897000,12.290000,28.916000,74.191000,28.390000
3.061,0.192000,0.140000,0.936000,12.214000,26.725000,74.985000,28.480000
3.068,0.147000,0.129000,0.951000,13.130000,23.351000,74.069000,28.580000
3.080,0.138000,0.143000,0.960000,11.466000,15.366000,73.496000,28.340000
3.093,0.186000,0.142000,0.960000,11.244000,12.443000,73.885000,28.440000
3.100,0.213000,0.144000,0.944000,13.176000,15.397000,75.687000,28.480000
3.112,0.186000,0.148000,0.958000,12.328000,19.359000,77.794000,28.480000
3.119,0.139000,0.160000,0.962000,10.634000,22.198000,78.053000,28.440000
3.133,0.081000,0.153000,0.980000,7.473000,22.763000,76.687000,28.440000
3.139,0.011000,0.138000,0.970000,5.550000,15.420000,73.840000,28.530000
3.152,0.004000,0.116000,0.966000,5.542000,6.824000,69.802000,28.390000
3.159,0.005000,0.089000,0.937000,10.038000,-1.771000,65.260000,28.480000
3.172,0.067000,0.108000,0.937000,10.344000,-7.015000,61.053000,28.440000
3.179,0.107000,0.139000,0.963000,9.122000,-10.450000,59.771000,28.440000
3.191,0.154000,0.141000,0.968000,8.977000,-8.366000,57.794000,28.480000
3.198,0.210000,0.148000,0.966000,6.473000,-2.947000,57.405000,28.290000
3.210,0.211000,0.147000,0.967000,4.160000,-0.076000,60.221000,28.480000
3.223,0.195000,0.144000,0.941000,3.947000,3.939000,62.687000,28.480000
3.230,0.174000,0.135000,0.915000,3.046000,6.000000,66.656000,28.530000
3.243,0.159000,0.132000,0.914000,3.443000,6.908000,69.336000,28.290000
3.250,0.171000,0.152000,0.911000,5.137000,11.168000,68.405000,28.390000
3.262,0.160000,0.137000,0.923000,6.786000,14.962000,72.382000,28.580000
3.269,0.112000,0.135000,0.923000,5.649000,16.496000,74.031000,28.440000
3.283,0.051000,0.113000,0.927000,7.626000,12.092000,74.145000,28.440000
3.289,0.012000,0.106000,0.933000,8.908000,4.687000,72.244000,28.390000
3.303,0.008000,0.103000,0.950000,8.664000,-5.321000,69.466000,28.480000
3.309,0.042000,0.126000,0.953000,8.954000,-10.702000,65.611000,28.440000
3.322,0.113000,0.137000,0.959000,7.084000,-9.908000,61.931000,28.530000
3.330,0.169000,0.149000,0.948000,4.626000,-4.084000,63.237000,28.440000
3.342,0.222000,0.141000,0.931000,4.008000,6.511000,68.511000,28.390000
3.348,0.184000,0.131000,0.910000,3.405000,15.031000,70.336000,28.390000
3.361,0.113000,0.117000,0.894000,5.794000,16.847000,70.443000,28.440000
3.368,0.061000,0.119000,0.897000,6.634000,11.031000,68.885000,28.530000
3.381,0.056000,0.100000,0.904000,6.496000,1.763000,67.779000,28.440000
3.387,0.074000,0.110000,0.904000,8.550000,-4.664000,66.710000,28.480000
3.400,0.122000,0.109000,0.917000,10.901000,-4.901000,64.985000,28.480000
3.412,0.115000,0.119000,0.934000,9.924000,-3.550000,65.504000,28.480000
3.420,0.133000,0.112000,0.947000,9.504000,0.885000,62.527000,28.530000
3.432,0.137000,0.105000,0.974000,10.870000,2.168000,64.351000,28.480000
3.440,0.101000,0.116000,0.979000,10.618000,0.183000,66.290000,28.580000
3.452,0.083000,0.125000,0.975000,8.779000,-4.595000,66.466000,28.480000
3.459,0.118000,0.098000,0.941000,7.504000,-5.137000,64.908000,28.440000
3.472,0.144000,0.097000,0.960000,6.802000,-3.122000,65.695000,28.440000
3.479,0.162000,0.120000,0.978000,7.389000,3.771000,63.939000,28.530000
3.492,0.164000,0.136000,0.989000,5.794000,10.962000,66.901000,28.390000
3.498,0.121000,0.122000,0.962000,3.122000,14.473000,67.252000,28.390000
3.511,0.105000,0.092000,0.921000,3.504000,17.153000,65.000000,28.440000
3.518,0.048000,0.063000,0.891000,6.008000,10.511000,64.756000,28.440000
3.532,0.032000,0.086000,0.918000,9.504000,1.443000,62.076000,28.440000
3.538,0.054000,0.115000,0.964000,8.588000,-4.870000,61.023000,28.390000
3.550,0.091000,0.136000,0.973000,5.580000,-5.092000,60.664000,28.480000
3.558,0.127000,0.148000,0.989000,4.611000,2.229000,59.939000,28.440000
3.570,0.124000,0.126000,0.972000,3.481000,11.985000,56.679000,28.440000
3.583,0.113000,0.103000,0.967000,3.618000,19.000000,54.802000,28.530000
3.590,0.064000,0.095000,0.947000,3.847000,18.763000,54.076000,28.480000
3.602,0.055000,0.088000,0.938000,4.031000,13.466000,53.924000,28.480000
3.609,0.080000,0.086000,0.928000,5.405000,8.412000,51.710000,28.480000
3.622,0.138000,0.103000,0.941000,3.603000,9.435000,50.802000,28.440000
3.629,0.191000,0.100000,0.920000,3.412000,15.160000,49.779000,28.440000
3.642,0.200000,0.125000,0.909000,4.176000,27.595000,51.527000,28.390000
3.649,0.107000,0.129000,0.936000,1.618000,28.237000,55.603000,28.480000
3.662,-0.004000,0.093000,0.950000,4.794000,19.924000,57.588000,28.440000
3.668,-0.042000,0.136000,0.978000,4.496000,11.977000,62.557000,28.440000
3.681,-0.052000,0.133000,0.980000,-0.802000,5.557000,62.229000,28.440000
3.688,-0.039000,0.110000,0.946000,-2.015000,8.366000,56.580000,28.480000
3.700,-0.008000,0.086000,0.906000,-4.221000,16.198000,50.115000,28.480000
3.713,0.028000,0.051000,0.835000,-5.053000,25.389000,39.382000,28.530000
3.720,0.074000,0.060000,0.816000,-1.824000,34.809000,31.305000,28.440000
3.732,0.071000,0.061000,0.832000,0.229000,33.580000,30.176000,28.340000
3.740,0.028000,0.040000,0.854000,5.183000,22.534000,32.626000,28.390000
3.752,0.027000,0.051000,0.891000,8.794000,9.412000,37.595000,28.390000
3.759,0.057000,0.074000,0.926000,7.328000,-2.534000,41.550000,28.440000
3.772,0.085000,0.039000,0.935000,8.015000,-6.931000,40.191000,28.530000
3.780,0.135000,0.072000,0.954000,9.389000,-4.412000,37.863000,28.390000
3.792,0.177000,0.098000,0.973000,4.740000,3.947000,36.969000,28.480000
3.799,0.213000,0.089000,0.943000,-1.092000,14.023000,36.885000,28.480000
3.811,0.234000,0.086000,0.894000,0.145000,24.206000,38.656000,28.390000
3.818,0.146000,0.057000,0.874000,2.496000,23.366000,44.924000,28.530000
3.832,0.024000,0.022000,0.880000,7.466000,13.099000,49.489000,28.480000
3.838,-0.037000,0.045000,0.913000,10.366000,-1.298000,50.389000,28.480000
3.850,-0.042000,0.040000,0.952000,11.458000,-13.595000,52.550000,28.390000
3.862,0.019000,0.059000,1.000000,11.206000,-13.168000,44.908000,28.530000
3.869,0.100000,0.076000,1.031000,10.412000,-3.275000,37.733000,28.440000
3.882,0.175000,0.116000,1.047000,3.489000,14.687000,32.504000,28.480000
3.889,0.161000,0.082000,0.992000,0.198000,24.344000,34.321000,28.480000
3.901,0.070000,0.027000,0.946000,3.634000,20.344000,39.435000,28.530000
3.909,-0.026000,0.040000,0.949000,6.321000,3.237000,43.885000,28.440000
3.921,-0.073000,0.041000,0.974000,6.893000,-19.435000,46.176000,28.440000
3.928,-0.012000,0.065000,1.017000,6.802000,-29.176000,42.389000,28.390000
3.942,0.110000,0.102000,1.052000,3.702000,-20.763000,41.443000,28.480000
3.948,0.150000,0.107000,1.051000,1.389000,-3.015000,38.588000,28.440000
3.960,0.141000,0.108000,1.034000,-0.603000,16.588000,35.931000,28.440000
3.972,0.091000,0.094000,0.983000,-3.328000,22.687000,33.679000,28.390000
3.980,0.047000,0.058000,0.946000,-2.015000,18.870000,30.855000,28.480000
3.992,0.052000,0.050000,0.901000,-1.008000,9.550000,30.618000,28.480000
3.999,0.080000,0.042000,0.904000,1.863000,-2.847000,34.344000,28.480000
4.012,0.111000,0.047000,0.935000,6.473000,-8.534000,35.504000,28.440000
4.019,0.161000,0.102000,0.974000,6.214000,-7.183000,39.618000,28.480000
4.032,0.189000,0.103000,0.981000,3.252000,-0.015000,42.008000,28.480000
4.039,0.228000,0.101000,0.976000,1.718000,13.748000,42.336000,28.440000
4.051,0.173000,0.073000,0.939000,-0.458000,21.832000,44.458000,28.440000
4.058,0.059000,0.031000,0.915000,4.588000,19.595000,44.504000,28.530000
4.071,-0.032000,0.027000,0.909000,7.473000,5.939000,44.634000,28.480000
4.079,-0.054000,0.054000,0.926000,6.160000,-13.618000,45.351000,28.480000
4.091,-0.009000,0.055000,0.977000,7.901000,-25.397000,41.878000,28.340000
4.102,0.078000,0.094000,0.994000,7.504000,-24.168000,39.916000,28.440000
4.109,0.148000,0.113000,1.002000,2.527000,-13.214000,40.374000,28.440000
4.122,0.186000,0.103000,0.985000,0.718000,5.115000,40.130000,28.390000
4.130,0.139000,0.094000,0.978000,-0.901000,19.237000,42.885000,28.480000
4.142,-0.005000,0.056000,0.964000,-1.107000,19.153000,42.008000,28.440000
4.149,-0.080000,0.048000,0.950000,0.198000,9.962000,37.939000,28.440000
4.161,-0.092000,0.048000,0.931000,-0.748000,-6.756000,35.260000,28.480000
4.168,-0.023000,0.047000,0.909000,0.099000,-16.023000,33.046000,28.480000
4.180,0.097000,0.068000,0.928000,1.992000,-11.359000,32.481000,28.480000
4.187,0.164000,0.100000,0.928000,-1.252000,2.160000,32.336000,28.390000
4.200,0.190000,0.087000,0.909000,-0.794000,17.977000,30.198000,28.530000
4.213,0.158000,0.083000,0.885000,1.282000,27.160000,31.015000,28.480000
4.220,0.101000,0.067000,0.873000,0.939000,25.565000,32.229000,28.480000
4.233,0.054000,0.056000,0.870000,3.282000,16.992000,34.290000,28.440000
4.240,0.061000,0.053000,0.873000,4.740000,8.634000,37.198000,28.440000
4.252,0.082000,0.065000,0.886000,4.145000,6.649000,39.290000,28.440000
4.259,0.145000,0.094000,0.902000,3.389000,17.160000,38.366000,28.480000
4.272,0.192000,0.128000,0.918000,-0.427000,38.290000,34.939000,28.480000
4.280,0.124000,0.071000,0.904000,0.076000,50.351000,33.954000,28.530000
4.292,0.012000,0.032000,0.872000,2.763000,51.290000,30.282000,28.440000
4.298,-0.044000,0.025000,0.845000,3.427000,37.489000,29.092000,28.440000
4.311,-0.050000,0.016000,0.841000,7.221000,17.092000,32.649000,28.480000
4.318,-0.025000,0.021000,0.845000,11.718000,2.260000,35.481000,28.580000
4.330,0.052000,0.052000,0.879000,13.344000,0.305000,39.840000,28.440000
4.343,0.095000,0.092000,0.914000,12.321000,9.824000,38.924000,28.530000
4.350,0.094000,0.091000,0.926000,13.802000,23.397000,35.191000,28.440000
4.362,0.033000,0.094000,0.951000,11.641000,30.580000,33.298000,28.390000
4.369,-0.073000,0.058000,0.930000,10.053000,23.435000,31.809000,28.390000
4.382,-0.123000,0.045000,0.908000,10.748000,9.321000,31.229000,28.480000
4.389,-0.085000,0.052000,0.898000,11.015000,-3.084000,33.443000,28.440000
4.401,-0.036000,0.038000,0.910000,12.244000,-5.611000,32.107000,28.480000
4.408,0.032000,0.075000,0.940000,13.527000,4.298000,30.023000,28.480000
4.421,0.044000,0.101000,0.958000,12.382000,17.992000,28.168000,28.480000
4.428,0.003000,0.115000,0.949000,10.809000,28.992000,26.069000,28.440000
4.441,-0.042000,0.118000,0.923000,9.305000,32.916000,25.275000,28.440000
4.453,-0.085000,0.105000,0.913000,8.435000,28.328000,25.618000,28.390000
4.460,-0.103000,0.092000,0.885000,9.771000,18.885000,27.763000,28.480000
4.472,-0.098000,0.060000,0.859000,13.092000,9.099000,25.679000,28.390000
4.480,-0.069000,0.062000,0.860000,15.076000,2.183000,22.000000,28.440000
4.492,-0.035000,0.033000,0.833000,20.168000,-4.840000,20.832000,28.440000
4.498,0.003000,0.035000,0.856000,27.603000,-8.718000,18.000000,28.480000
4.511,0.009000,0.058000,0.906000,31.817000,-11.718000,19.977000,28.480000
4.518,0.009000,0.082000,1.027000,32.901000,-8.435000,21.962000,28.530000
4.531,-0.001000,0.176000,1.151000,28.137000,3.916000,22.847000,28.530000
4.543,-0.054000,0.189000,1.211000,13.687000,17.176000,22.817000,28.440000
4.550,-0.082000,0.160000,1.191000,3.252000,30.588000,17.046000,28.480000
4.562,-0.119000,0.130000,1.116000,-4.130000,36.618000,12.023000,28.480000
4.569,-0.135000,0.072000,1.012000,-5.534000,33.198000,4.443000,28.480000
4.583,-0.122000,0.050000,0.955000,-2.046000,21.771000,0.977000,28.440000
4.589,-0.082000,0.088000,0.932000,0.198000,8.153000,3.221000,28.440000
4.601,-0.018000,0.065000,0.906000,2.588000,-4.015000,5.969000,28.390000
4.609,0.046000,0.093000,0.911000,8.863000,-8.595000,7.863000,28.480000
4.622,0.072000,0.114000,0.896000,10.237000,-9.542000,8.847000,28.440000
4.629,0.121000,0.105000,0.896000,12.664000,-9.779000,7.443000,28.440000
4.641,0.148000,0.114000,0.906000,15.267000,-9.443000,13.374000,28.580000
4.648,0.146000,0.110000,0.946000,16.489000,-9.183000,19.435000,28.480000
4.660,0.166000,0.157000,1.021000,13.740000,-2.725000,22.962000,28.480000
4.675,0.167000,0.220000,1.046000,5.679000,9.000000,33.359000,28.440000
4.681,0.102000,0.167000,1.013000,1.260000,18.198000,33.115000,28.530000
4.693,0.065000,0.113000,0.979000,6.328000,25.267000,26.473000,28.480000
4.700,-0.016000,0.098000,0.967000,6.870000,18.718000,23.550000,28.390000
4.712,-0.049000,0.071000,0.985000,8.687000,6.786000,20.550000,28.530000
4.719,-0.033000,0.095000,1.005000,8.344000,-3.229000,24.214000,28.530000
4.732,0.001000,0.117000,1.007000,5.756000,-6.237000,25.786000,28.530000
4.739,0.027000,0.130000,1.002000,4.137000,-0.557000,24.336000,28.580000
4.751,0.008000,0.144000,1.010000,5.450000,3.939000,23.718000,28.480000
4.758,-0.024000,0.152000,1.019000,3.244000,7.855000,21.870000,28.480000
4.771,-0.035000,0.146000,1.006000,-0.298000,7.763000,20.588000,28.530000
4.779,-0.020000,0.122000,0.962000,-3.924000,7.718000,21.649000,28.480000
4.791,-0.021000,0.105000,0.916000,-4.122000,7.641000,24.099000,28.480000
4.798,-0.033000,0.119000,0.894000,-2.427000,9.053000,27.885000,28.440000
4.810,-0.080000,0.129000,0.915000,-0.038000,6.351000,27.130000,28.530000
4.823,-0.095000,0.139000,0.937000,4.473000,6.115000,20.359000,28.530000
4.830,-0.096000,0.139000,0.948000,5.206000,2.504000,17.557000,28.480000
4.843,-0.058000,0.114000,0.957000,5.687000,1.229000,12.397000,28.480000
4.849,-0.016000,0.111000,0.935000,7.809000,2.031000,11.901000,28.530000
4.862,-0.010000,0.118000,0.919000,7.679000,2.824000,12.137000,28.440000
4.869,-0.001000,0.112000,0.898000,9.954000,3.092000,11.550000,28.440000
4.882,-0.018000,0.115000,0.902000,11.550000,2.160000,10.130000,28.480000
4.889,-0.028000,0.134000,0.901000,11.275000,1.198000,7.229000,28.480000
4.901,-0.015000,0.144000,0.925000,10.328000,0.290000,6.092000,28.440000
4.908,-0.001000,0.136000,0.926000,11.550000,0.389000,8.817000,28.530000
4.921,0.006000,0.143000,0.949000,11.511000,0.115000,11.969000,28.440000
4.929,0.016000,0.158000,0.981000,9.702000,2.282000,20.183000,28.480000
4.941,-0.011000,0.171000,0.982000,3.786000,5.076000,26.061000,28.480000
4.948,-0.036000,0.146000,0.971000,1.786000,8.221000,28.382000,28.480000
4.960,-0.093000,0.160000,0.948000,-1.542000,12.137000,30.756000,28.440000
4.972,-0.145000,0.156000,0.921000,-7.031000,15.160000,29.099000,28.440000
4.980,-0.164000,0.127000,0.893000,-7.115000,19.221000,22.588000,28.480000
4.993,-0.178000,0.100000,0.855000,-4.481000,20.656000,15.931000,28.480000
4.999,-0.185000,0.097000,0.852000,-0.687000,18.198000,9.870000,28.530000
5.011,-0.191000,0.100000,0.853000,4.290000,10.542000,8.115000,28.440000
5.018,-0.175000,0.104000,0.890000,6.626000,2.221000,4.695000,28.390000
5.031,-0.113000,0.135000,0.888000,6.603000,-2.015000,2.198000,28.480000
5.039,-0.038000,0.110000,0.874000,6.924000,-3.466000,4.191000,28.480000
5.050,-0.003000,0.114000,0.874000,11.267000,-1.076000,5.221000,28.530000
5.058,-0.010000,0.145000,0.909000,11.595000,1.511000,7.145000,28.440000
5.070,-0.042000,0.153000,0.940000,11.252000,0.038000,7.496000,28.390000
5.083,-0.055000,0.156000,0.960000,11.519000,-0.901000,8.298000,28.480000
5.091,-0.054000,0.166000,0.960000,8.565000,-2.229000,7.092000,28.480000
5.102,-0.028000,0.154000,0.955000,4.840000,0.191000,5.382000,28.530000
5.110,-0.007000,0.115000,0.918000,4.145000,4.740000,6.420000,28.530000
5.122,-0.031000,0.098000,0.885000,8.931000,5.931000,9.817000,28.480000
5.130,-0.085000,0.124000,0.898000,9.779000,3.878000,9.656000,28.580000
5.142,-0.115000,0.144000,0.933000,9.763000,-0.229000,9.069000,28.480000
5.149,-0.145000,0.134000,0.937000,11.366000,-5.840000,5.275000,28.440000
5.161,-0.107000,0.165000,0.949000,13.206000,-8.969000,-1.191000,28.530000
5.168,-0.053000,0.150000,0.946000,13.412000,-9.786000,-4.977000,28.390000
5.181,-0.014000,0.154000,0.972000,15.550000,-8.458000,-8.863000,28.480000
5.189,0.007000,0.167000,1.005000,15.847000,-6.489000,-8.496000,28.480000
5.200,0.001000,0.162000,1.025000,13.183000,-6.221000,-5.748000,28.340000
5.213,-0.001000,0.181000,1.043000,9.168000,-3.893000,-2.771000,28.530000
5.220,-0.006000,0.193000,1.018000,1.947000,-0.092000,1.992000,28.390000
5.233,-0.039000,0.161000,0.985000,1.031000,0.931000,1.840000,28.480000
5.240,-0.057000,0.181000,0.969000,3.031000,1.580000,-0.924000,28.440000
5.252,-0.063000,0.169000,0.960000,3.069000,-2.595000,-0.855000,28.440000
5.259,-0.030000,0.147000,0.957000,6.405000,-4.931000,-5.137000,28.440000
5.271,0.002000,0.162000,0.956000,5.443000,-7.344000,-4.305000,28.580000
5.280,0.023000,0.155000,0.960000,5.305000,-8.076000,-3.038000,28.480000
5.292,0.023000,0.192000,0.955000,3.824000,-5.275000,-0.267000,28.440000
5.299,0.002000,0.184000,0.968000,2.939000,-4.099000,1.809000,28.440000
5.311,-0.023000,0.192000,0.977000,2.725000,-2.160000,-0.656000,28.530000
5.318,-0.046000,0.198000,0.986000,1.267000,-4.374000,-0.244000,28.480000
5.331,-0.037000,0.181000,0.952000,-1.076000,-3.374000,-4.053000,28.480000
5.343,0.018000,0.162000,0.898000,-1.389000,-1.023000,-1.344000,28.480000
5.350,0.035000,0.142000,0.871000,1.374000,0.511000,1.916000,28.440000
5.382,0.010000,0.165000,0.863000,3.718000,3.145000,4.000000,28.530000
5.382,-0.043000,0.174000,0.897000,2.824000,0.794000,6.237000,28.480000
5.382,-0.077000,0.182000,0.895000,3.893000,-2.748000,2.878000,28.480000
