time_sec,ax,ay,az,gx,gy,gz,temp_c
0.020,0.188000,0.869000,0.412000,-4.191000,21.870000,21.275000,26.320000
0.027,0.229000,0.840000,0.395000,-5.275000,12.000000,14.656000,26.320000
0.040,0.243000,0.794000,0.389000,-6.542000,8.374000,10.366000,26.320000
0.047,0.249000,0.761000,0.368000,-2.588000,5.626000,8.374000,26.320000
0.060,0.221000,0.769000,0.369000,-0.832000,5.519000,2.855000,26.370000
0.067,0.208000,0.787000,0.378000,0.351000,2.000000,-1.702000,26.270000
0.082,0.220000,0.806000,0.390000,1.427000,-2.603000,-5.962000,26.370000
0.088,0.262000,0.833000,0.384000,0.908000,-9.550000,-8.740000,26.370000
0.099,0.317000,0.833000,0.393000,0.611000,-12.878000,-3.733000,26.320000
0.109,0.333000,0.823000,0.391000,2.412000,-14.328000,2.130000,26.320000
0.119,0.354000,0.834000,0.396000,4.611000,-13.573000,6.237000,26.320000
0.126,0.351000,0.829000,0.403000,6.603000,-10.542000,7.489000,26.320000
0.139,0.368000,0.854000,0.413000,7.374000,-7.809000,5.489000,26.410000
0.146,0.367000,0.883000,0.424000,4.168000,-6.802000,2.679000,26.270000
0.159,0.394000,0.884000,0.444000,-0.740000,-9.794000,2.305000,26.370000
0.166,0.433000,0.881000,0.438000,-4.748000,-14.397000,3.962000,26.270000
0.179,0.514000,0.878000,0.422000,-6.634000,-18.267000,7.473000,26.320000
0.186,0.613000,0.867000,0.411000,-5.511000,-14.489000,18.214000,26.320000
0.198,0.634000,0.838000,0.407000,-3.534000,-2.542000,24.985000,26.320000
0.211,0.648000,0.807000,0.393000,-0.267000,15.565000,30.977000,26.320000
0.218,0.622000,0.790000,0.403000,3.313000,34.092000,36.435000,26.270000
0.231,0.563000,0.802000,0.408000,4.748000,47.557000,39.611000,26.270000
0.239,0.505000,0.837000,0.429000,2.321000,52.153000,39.718000,26.180000
0.250,0.462000,0.861000,0.442000,-0.038000,48.260000,37.771000,26.270000
0.258,0.436000,0.885000,0.445000,-3.382000,39.351000,33.427000,26.320000
0.270,0.435000,0.855000,0.426000,-8.160000,28.046000,30.908000,26.220000
0.278,0.433000,0.827000,0.402000,-9.084000,16.779000,30.122000,26.320000
0.290,0.462000,0.808000,0.370000,-6.573000,7.588000,29.511000,26.220000
0.297,0.503000,0.807000,0.367000,-4.626000,2.863000,29.168000,26.370000
0.309,0.536000,0.822000,0.379000,-3.374000,1.046000,30.565000,26.370000
0.317,0.567000,0.829000,0.395000,-1.924000,2.115000,29.450000,26.270000
0.330,0.589000,0.863000,0.390000,1.023000,4.847000,33.000000,26.270000
0.337,0.589000,0.859000,0.396000,2.336000,9.824000,33.725000,26.320000
0.350,0.579000,0.829000,0.396000,4.580000,14.718000,33.641000,26.320000
0.357,0.545000,0.800000,0.394000,7.015000,17.504000,37.359000,26.320000
0.371,0.547000,0.802000,0.407000,9.992000,19.473000,39.252000,26.220000
0.377,0.544000,0.822000,0.414000,10.435000,21.313000,41.718000,26.270000
0.389,0.543000,0.826000,0.421000,9.412000,24.145000,45.664000,26.270000
0.396,0.528000,0.837000,0.421000,8.603000,26.725000,50.206000,26.370000
0.409,0.512000,0.852000,0.416000,8.641000,27.183000,53.618000,26.270000
0.416,0.487000,0.817000,0.406000,11.450000,28.977000,55.878000,26.320000
0.430,0.460000,0.812000,0.398000,15.397000,30.962000,56.244000,26.410000
0.436,0.467000,0.822000,0.411000,18.206000,31.786000,60.290000,26.410000
0.448,0.438000,0.824000,0.412000,15.695000,33.282000,61.000000,26.320000
0.461,0.449000,0.803000,0.398000,14.863000,34.153000,62.344000,26.320000
0.468,0.421000,0.805000,0.409000,14.122000,33.947000,65.069000,26.370000
0.480,0.384000,0.796000,0.416000,12.962000,33.641000,65.786000,26.270000
0.488,0.358000,0.808000,0.417000,16.076000,31.427000,67.351000,26.370000
0.500,0.335000,0.822000,0.433000,18.664000,28.237000,67.023000,26.320000
0.507,0.333000,0.889000,0.481000,17.733000,21.847000,65.664000,26.320000
0.520,0.357000,0.862000,0.516000,17.771000,13.534000,58.092000,26.320000
0.528,0.400000,0.853000,0.518000,14.550000,6.221000,55.084000,26.320000
0.540,0.472000,0.839000,0.538000,12.794000,1.763000,61.328000,26.370000
0.547,0.495000,0.839000,0.542000,8.809000,3.443000,65.702000,26.370000
0.560,0.505000,0.829000,0.543000,6.053000,8.214000,67.740000,26.370000
0.567,0.464000,0.800000,0.538000,3.206000,12.969000,62.420000,26.370000
0.580,0.464000,0.802000,0.530000,3.374000,14.443000,54.725000,26.320000
0.588,0.474000,0.825000,0.538000,0.023000,11.290000,49.061000,26.320000
0.599,0.499000,0.791000,0.508000,-3.008000,5.290000,45.580000,26.320000
0.606,0.570000,0.769000,0.490000,-2.420000,2.916000,46.878000,26.320000
0.620,0.623000,0.759000,0.499000,-0.168000,5.008000,52.168000,26.370000
0.627,0.638000,0.752000,0.506000,2.412000,12.748000,52.031000,26.370000
0.639,0.650000,0.774000,0.523000,4.985000,22.962000,49.534000,26.270000
0.646,0.612000,0.782000,0.545000,5.450000,27.099000,46.397000,26.370000
0.659,0.587000,0.797000,0.579000,8.038000,26.153000,39.573000,26.320000
0.666,0.587000,0.840000,0.572000,1.649000,19.504000,38.282000,26.320000
0.679,0.589000,0.824000,0.577000,-7.931000,9.137000,36.733000,26.320000
0.684,0.648000,0.780000,0.525000,-13.282000,-3.710000,39.603000,26.410000
0.698,0.677000,0.753000,0.498000,-13.588000,-13.191000,43.565000,26.270000
0.710,0.708000,0.737000,0.485000,-13.122000,-16.595000,44.244000,26.270000
0.719,0.719000,0.746000,0.484000,-12.290000,-18.023000,44.160000,26.270000
0.730,0.728000,0.721000,0.480000,-11.565000,-18.573000,40.130000,26.370000
0.737,0.730000,0.719000,0.455000,-11.702000,-19.832000,38.061000,26.320000
0.749,0.757000,0.695000,0.448000,-11.618000,-21.519000,36.450000,26.320000
0.756,0.800000,0.681000,0.441000,-8.550000,-22.840000,32.672000,26.410000
0.770,0.847000,0.686000,0.449000,-5.672000,-17.626000,30.611000,26.320000
0.781,0.864000,0.713000,0.448000,-6.229000,-12.481000,31.244000,26.320000
0.788,0.877000,0.708000,0.443000,-7.427000,-8.863000,34.153000,26.270000
0.801,0.874000,0.698000,0.411000,-7.260000,-5.031000,37.962000,26.270000
0.808,0.876000,0.698000,0.391000,-7.069000,-0.710000,45.092000,26.370000
0.820,0.868000,0.675000,0.392000,-3.771000,5.275000,48.534000,26.320000
0.828,0.860000,0.696000,0.398000,-1.977000,13.733000,48.389000,26.320000
0.840,0.824000,0.705000,0.414000,-0.397000,19.176000,46.977000,26.320000
0.847,0.792000,0.727000,0.420000,0.282000,26.015000,43.641000,26.270000
0.860,0.754000,0.737000,0.422000,-1.008000,31.504000,38.664000,26.370000
0.867,0.758000,0.746000,0.441000,-0.412000,33.160000,38.282000,26.370000
0.880,0.746000,0.815000,0.454000,-3.519000,32.771000,44.069000,26.460000
0.887,0.721000,0.801000,0.453000,-7.916000,28.634000,47.634000,26.320000
0.899,0.722000,0.779000,0.459000,-4.756000,24.191000,49.695000,26.320000
0.906,0.701000,0.798000,0.448000,-4.641000,20.382000,51.053000,26.410000
0.921,0.692000,0.749000,0.449000,-3.740000,16.351000,50.191000,26.320000
0.926,0.708000,0.771000,0.439000,-3.412000,14.878000,52.092000,26.370000
0.939,0.711000,0.769000,0.444000,-4.756000,14.947000,55.382000,26.270000
0.951,0.704000,0.786000,0.447000,-3.656000,17.145000,58.672000,26.270000
0.958,0.677000,0.812000,0.461000,-2.214000,20.634000,63.626000,26.370000
0.972,0.650000,0.809000,0.466000,-3.298000,23.450000,64.794000,26.320000
0.983,0.603000,0.800000,0.491000,-4.092000,23.336000,64.168000,26.320000
0.991,0.580000,0.768000,0.511000,-1.817000,20.985000,58.107000,26.410000
0.998,0.604000,0.724000,0.515000,-3.397000,19.954000,50.664000,26.220000
1.010,0.618000,0.650000,0.503000,-3.359000,17.634000,46.069000,26.180000
1.017,0.654000,0.614000,0.513000,-1.435000,16.305000,42.924000,26.370000
1.030,0.673000,0.585000,0.519000,0.595000,16.786000,41.099000,26.370000
1.037,0.656000,0.600000,0.528000,2.542000,18.565000,39.260000,26.370000
1.050,0.631000,0.596000,0.526000,3.260000,18.924000,33.122000,26.410000
1.057,0.639000,0.591000,0.535000,3.626000,19.198000,29.282000,26.320000
1.070,0.604000,0.574000,0.541000,1.588000,17.344000,27.740000,26.320000
1.077,0.580000,0.595000,0.533000,-3.550000,13.824000,27.183000,26.320000
1.089,0.550000,0.593000,0.515000,-7.489000,6.038000,27.267000,26.220000
1.096,0.555000,0.603000,0.531000,-9.374000,-3.519000,23.840000,26.370000
1.108,0.574000,0.634000,0.567000,-6.069000,-13.794000,21.916000,26.270000
1.116,0.589000,0.629000,0.567000,-9.695000,-19.176000,26.153000,26.370000
1.128,0.640000,0.602000,0.552000,-10.244000,-17.870000,27.534000,26.410000
1.141,0.685000,0.579000,0.518000,-10.389000,-14.328000,28.336000,26.320000
1.147,0.727000,0.544000,0.497000,-13.641000,-7.656000,30.489000,26.320000
1.160,0.753000,0.531000,0.477000,-13.260000,5.649000,31.954000,26.320000
1.167,0.718000,0.531000,0.471000,-10.656000,21.779000,31.939000,26.370000
1.181,0.587000,0.479000,0.448000,-6.328000,30.130000,29.427000,26.270000
1.189,0.470000,0.547000,0.427000,-3.649000,30.153000,25.511000,26.370000
1.199,0.380000,0.607000,0.436000,-9.771000,18.534000,17.718000,26.370000
1.206,0.368000,0.573000,0.445000,-5.359000,1.809000,9.282000,26.320000
1.221,0.440000,0.580000,0.449000,-3.344000,-8.275000,2.756000,26.220000
1.228,0.532000,0.556000,0.463000,-3.275000,-15.511000,3.901000,26.320000
1.239,0.616000,0.541000,0.458000,-3.458000,-15.328000,7.550000,26.320000
1.246,0.663000,0.529000,0.438000,-8.687000,-12.275000,14.374000,26.370000
1.258,0.702000,0.526000,0.435000,-14.366000,-6.527000,22.740000,26.370000
1.272,0.694000,0.555000,0.418000,-18.763000,-3.718000,31.664000,26.370000
1.279,0.679000,0.543000,0.419000,-24.038000,-1.130000,34.977000,26.460000
1.290,0.676000,0.521000,0.449000,-20.168000,2.031000,39.313000,26.320000
1.297,0.660000,0.466000,0.450000,-10.305000,10.244000,36.519000,26.320000
1.310,0.660000,0.455000,0.437000,-9.916000,18.878000,30.298000,26.320000
1.317,0.662000,0.455000,0.412000,-11.328000,24.344000,26.252000,26.320000
1.330,0.652000,0.447000,0.420000,-11.878000,24.809000,24.046000,26.370000
1.337,0.649000,0.431000,0.410000,-12.061000,21.466000,21.145000,26.270000
1.349,0.642000,0.453000,0.419000,-6.725000,11.214000,18.992000,26.270000
1.356,0.665000,0.485000,0.457000,-2.992000,0.008000,21.221000,26.270000
1.371,0.744000,0.433000,0.483000,4.336000,-8.878000,25.359000,26.320000
1.377,0.844000,0.497000,0.518000,4.382000,-2.992000,31.885000,26.320000
1.389,0.895000,0.495000,0.516000,-1.687000,10.481000,39.977000,26.320000
1.396,0.838000,0.488000,0.538000,-7.504000,26.275000,42.534000,26.320000
1.408,0.743000,0.519000,0.549000,-15.359000,38.336000,42.542000,26.410000
1.421,0.625000,0.475000,0.580000,-22.443000,42.977000,40.573000,26.370000
1.428,0.521000,0.456000,0.598000,-21.275000,43.420000,35.382000,26.270000
1.440,0.488000,0.492000,0.620000,-29.527000,42.351000,33.427000,26.370000
1.447,0.484000,0.428000,0.618000,-33.260000,43.534000,30.573000,26.320000
1.460,0.543000,0.407000,0.597000,-32.954000,49.366000,25.847000,26.220000
1.466,0.564000,0.385000,0.544000,-37.237000,57.588000,22.229000,26.320000
1.481,0.493000,0.298000,0.501000,-31.130000,53.122000,20.115000,26.320000
1.486,0.421000,0.292000,0.472000,-26.985000,43.198000,16.626000,26.270000
1.499,0.376000,0.289000,0.470000,-22.489000,28.023000,17.412000,26.370000
1.504,0.355000,0.303000,0.481000,-19.298000,16.214000,17.756000,26.270000
1.520,0.386000,0.273000,0.491000,-15.557000,9.809000,11.122000,26.460000
1.531,0.396000,0.250000,0.513000,-11.954000,4.824000,10.084000,26.320000
1.538,0.371000,0.268000,0.522000,-13.191000,5.069000,1.550000,26.510000
1.550,0.447000,0.213000,0.504000,-15.649000,2.969000,-1.863000,26.320000
1.557,0.471000,0.219000,0.458000,-18.359000,7.618000,-3.931000,26.410000
1.572,0.508000,0.213000,0.428000,-17.557000,10.534000,-7.244000,26.460000
1.578,0.542000,0.255000,0.416000,-9.878000,14.977000,-11.580000,26.460000
1.590,0.542000,0.319000,0.494000,-6.565000,16.550000,-14.870000,26.370000
1.597,0.477000,0.308000,0.539000,-6.374000,14.489000,-20.099000,26.410000
1.609,0.438000,0.255000,0.581000,-8.336000,7.466000,-22.870000,26.320000
1.616,0.486000,0.252000,0.558000,-13.244000,3.336000,-21.885000,26.320000
1.630,0.578000,0.219000,0.485000,-15.053000,-0.344000,-22.855000,26.320000
1.641,0.665000,0.235000,0.490000,-11.336000,4.435000,-24.618000,26.370000
1.648,0.547000,0.235000,0.495000,-2.992000,-4.519000,-24.130000,26.370000
1.660,0.425000,0.246000,0.620000,6.061000,-25.397000,-24.954000,26.370000
1.668,0.339000,0.259000,0.784000,9.924000,-54.511000,-24.397000,26.370000
1.681,0.406000,0.383000,0.925000,4.336000,-78.008000,-26.023000,26.410000
1.688,0.667000,0.501000,0.821000,-39.832000,-76.153000,-30.901000,26.410000
1.699,1.134000,0.552000,0.934000,-64.870000,-36.130000,-24.939000,26.410000
1.706,1.325000,0.558000,0.774000,-92.031000,22.466000,-21.901000,26.320000
1.721,1.294000,0.519000,0.583000,-109.427000,77.015000,-21.092000,26.510000
1.731,1.050000,0.330000,0.413000,-105.252000,100.397000,-4.832000,26.410000
1.738,0.611000,0.103000,0.330000,-80.260000,85.763000,10.260000,26.370000
1.750,0.239000,0.033000,0.336000,-48.779000,32.137000,27.115000,26.370000
1.757,0.216000,0.098000,0.406000,-26.244000,-21.099000,35.832000,26.320000
1.770,0.426000,0.153000,0.467000,-18.023000,-39.076000,32.855000,26.320000
1.776,0.645000,0.204000,0.466000,-24.198000,-19.176000,28.031000,26.320000
1.789,0.668000,0.272000,0.430000,-42.603000,14.397000,13.397000,26.410000
1.796,0.591000,0.218000,0.388000,-50.389000,36.397000,-1.031000,26.370000
1.808,0.457000,0.083000,0.312000,-43.802000,37.221000,-9.183000,26.270000
1.821,0.369000,0.021000,0.260000,-33.748000,17.977000,-7.672000,26.270000
1.828,0.386000,-0.089000,0.188000,-21.695000,-4.412000,2.664000,26.370000
1.840,0.435000,-0.107000,0.142000,-3.130000,-26.031000,13.824000,26.320000
1.847,0.485000,-0.025000,0.179000,15.534000,-38.649000,17.351000,26.320000
1.859,0.515000,0.072000,0.299000,30.092000,-37.779000,7.878000,26.320000
1.867,0.562000,0.141000,0.455000,35.794000,-23.809000,-3.931000,26.410000
1.880,0.523000,0.188000,0.570000,28.824000,-9.061000,-16.481000,26.370000
1.888,0.528000,0.243000,0.666000,18.595000,-0.809000,-27.084000,26.270000
1.899,0.620000,0.223000,0.661000,4.542000,4.351000,-28.672000,26.370000
1.906,0.678000,0.216000,0.590000,-9.702000,7.893000,-23.298000,26.410000
1.920,0.681000,0.142000,0.489000,-8.992000,3.626000,-9.611000,26.320000
1.926,0.619000,0.122000,0.389000,-4.473000,-4.260000,4.298000,26.320000
1.939,0.541000,0.113000,0.333000,2.901000,-17.489000,10.252000,26.320000
1.951,0.562000,0.117000,0.353000,14.328000,-26.183000,8.519000,26.460000
1.958,0.600000,0.125000,0.377000,24.725000,-25.779000,5.130000,26.270000
1.971,0.637000,0.175000,0.448000,30.023000,-17.908000,-1.466000,26.270000
1.978,0.671000,0.164000,0.531000,34.466000,-3.130000,-6.580000,26.270000
1.990,0.640000,0.230000,0.593000,29.069000,10.099000,-9.382000,26.410000
1.997,0.605000,0.325000,0.623000,19.649000,19.824000,-15.397000,26.410000
2.009,0.569000,0.269000,0.568000,11.450000,22.282000,-19.992000,26.320000
2.017,0.594000,0.163000,0.494000,3.389000,21.031000,-20.046000,26.410000
2.030,0.632000,0.125000,0.430000,4.466000,18.115000,-16.855000,26.410000
2.037,0.620000,0.114000,0.385000,10.122000,14.076000,-11.947000,26.370000
2.049,0.552000,0.134000,0.375000,19.168000,5.191000,-8.000000,26.460000
2.056,0.506000,0.166000,0.417000,29.603000,-0.809000,-7.656000,26.370000
2.069,0.463000,0.236000,0.476000,35.305000,-4.336000,-8.855000,26.410000
2.074,0.412000,0.340000,0.527000,33.359000,-9.565000,-14.672000,26.410000
2.088,0.470000,0.370000,0.589000,28.641000,-10.511000,-23.847000,26.320000
2.100,0.607000,0.330000,0.604000,21.931000,1.725000,-28.565000,26.370000
2.107,0.642000,0.302000,0.546000,15.962000,13.481000,-29.092000,26.370000
2.120,0.593000,0.253000,0.494000,15.130000,15.985000,-26.649000,26.270000
2.128,0.547000,0.249000,0.480000,15.435000,11.023000,-24.351000,26.370000
2.140,0.533000,0.222000,0.483000,20.916000,1.466000,-24.885000,26.320000
2.146,0.532000,0.235000,0.530000,31.748000,-6.985000,-23.611000,26.320000
2.159,0.514000,0.345000,0.561000,40.061000,-16.366000,-20.046000,26.410000
2.166,0.514000,0.405000,0.609000,41.229000,-26.733000,-20.565000,26.410000
2.180,0.544000,0.393000,0.664000,46.565000,-34.595000,-21.450000,26.370000
2.191,0.559000,0.444000,0.704000,48.519000,-35.336000,-22.412000,26.370000
2.197,0.558000,0.426000,0.734000,39.458000,-30.229000,-21.038000,26.370000
2.210,0.570000,0.438000,0.737000,21.931000,-21.481000,-20.359000,26.370000
2.217,0.583000,0.466000,0.695000,8.336000,-13.695000,-21.168000,26.320000
2.230,0.631000,0.503000,0.662000,2.626000,-6.107000,-27.145000,26.320000
2.238,0.652000,0.484000,0.618000,3.053000,6.763000,-36.985000,26.410000
2.249,0.681000,0.434000,0.575000,8.641000,16.000000,-44.115000,26.410000
2.256,0.661000,0.388000,0.574000,11.687000,25.916000,-44.557000,26.370000
2.269,0.551000,0.307000,0.555000,13.321000,25.489000,-36.947000,26.460000
2.276,0.345000,0.261000,0.571000,16.542000,8.542000,-17.527000,26.370000
2.289,0.174000,0.398000,0.513000,9.145000,-20.366000,0.107000,26.370000
2.296,0.238000,0.478000,0.431000,1.397000,-47.771000,-4.985000,26.320000
2.308,0.474000,0.463000,0.364000,13.046000,-52.641000,-21.473000,26.410000
2.320,0.637000,0.435000,0.331000,30.504000,-44.832000,-37.672000,26.410000
2.327,0.654000,0.388000,0.327000,47.763000,-34.885000,-43.450000,26.510000
2.340,0.536000,0.349000,0.365000,60.458000,-39.046000,-40.382000,26.410000
2.347,0.438000,0.390000,0.402000,63.786000,-52.099000,-32.924000,26.270000
2.359,0.340000,0.410000,0.408000,64.160000,-78.634000,-25.847000,26.460000
2.366,0.316000,0.426000,0.385000,76.412000,-115.092000,-20.916000,26.270000
2.379,0.411000,0.617000,0.395000,80.183000,-149.519000,-25.573000,26.320000
2.391,0.798000,0.718000,0.461000,78.031000,-149.389000,-40.328000,26.320000
2.397,1.137000,0.706000,0.559000,79.450000,-108.588000,-55.710000,26.410000
2.410,1.309000,0.723000,0.646000,67.015000,-42.519000,-59.511000,26.410000
2.417,1.074000,0.607000,0.658000,43.771000,9.580000,-43.855000,26.270000
2.430,0.704000,0.630000,0.657000,20.267000,27.809000,-20.573000,26.370000
2.438,0.376000,0.748000,0.536000,-12.947000,8.794000,-1.427000,26.370000
2.449,0.312000,0.685000,0.415000,-17.031000,-31.901000,0.832000,26.410000
2.456,0.411000,0.608000,0.332000,1.908000,-65.038000,-5.092000,26.410000
2.470,0.545000,0.584000,0.281000,23.901000,-88.779000,-15.542000,26.410000
2.481,0.728000,0.604000,0.323000,36.534000,-84.336000,-25.618000,26.320000
2.489,0.869000,0.572000,0.372000,39.473000,-58.557000,-23.954000,26.460000
2.500,0.834000,0.609000,0.379000,25.115000,-22.053000,-13.267000,26.460000
2.507,0.647000,0.761000,0.312000,-4.954000,0.061000,-5.656000,26.370000
2.520,0.510000,0.724000,0.263000,-21.542000,1.031000,-10.878000,26.370000
2.527,0.459000,0.613000,0.235000,-9.565000,-6.473000,-22.931000,26.410000
2.540,0.435000,0.592000,0.243000,8.489000,-18.939000,-37.435000,26.320000
2.546,0.467000,0.583000,0.277000,19.275000,-27.031000,-48.916000,26.320000
2.559,0.589000,0.612000,0.339000,23.107000,-27.038000,-53.260000,26.410000
2.564,0.760000,0.647000,0.363000,13.702000,-3.695000,-52.237000,26.270000
2.579,0.759000,0.737000,0.383000,4.435000,21.130000,-41.748000,26.370000
2.591,0.643000,0.868000,0.352000,-10.901000,38.008000,-38.557000,26.370000
2.597,0.526000,0.776000,0.297000,-13.099000,35.802000,-52.015000,26.460000
2.610,0.501000,0.660000,0.305000,3.145000,27.809000,-65.420000,26.410000
2.617,0.466000,0.651000,0.337000,15.435000,10.611000,-68.435000,26.320000
2.630,0.443000,0.646000,0.365000,24.214000,-12.718000,-71.382000,26.320000
2.638,0.530000,0.685000,0.408000,26.328000,-30.878000,-68.977000,26.320000
2.649,0.667000,0.738000,0.422000,23.863000,-32.595000,-62.252000,26.410000
2.656,0.721000,0.815000,0.404000,13.908000,-22.626000,-55.962000,26.370000
2.668,0.732000,0.875000,0.389000,8.015000,-9.748000,-53.573000,26.370000
2.681,0.720000,0.889000,0.364000,1.366000,3.115000,-55.427000,26.410000
2.688,0.703000,0.827000,0.342000,4.466000,11.473000,-63.496000,26.320000
2.700,0.678000,0.805000,0.353000,10.008000,15.908000,-65.344000,26.410000
2.708,0.583000,0.785000,0.378000,11.611000,9.527000,-61.702000,26.410000
2.720,0.474000,0.771000,0.398000,14.183000,-7.168000,-54.237000,26.370000
2.728,0.455000,0.844000,0.423000,9.565000,-26.733000,-46.153000,26.370000
2.740,0.521000,0.909000,0.398000,-2.802000,-35.649000,-40.977000,26.270000
2.746,0.636000,0.850000,0.332000,-4.802000,-36.878000,-40.832000,26.270000
2.759,0.687000,0.873000,0.287000,-2.885000,-28.397000,-39.695000,26.410000
2.766,0.647000,0.877000,0.288000,-0.679000,-18.847000,-39.122000,26.410000
2.778,0.569000,0.829000,0.289000,5.710000,-16.214000,-40.244000,26.410000
2.791,0.483000,0.831000,0.305000,7.603000,-17.809000,-43.962000,26.320000
2.797,0.414000,0.797000,0.283000,9.992000,-31.511000,-52.008000,26.370000
2.810,0.456000,0.804000,0.287000,18.504000,-46.176000,-64.733000,26.370000
2.817,0.553000,0.817000,0.303000,23.626000,-54.267000,-74.649000,26.370000
2.830,0.692000,0.825000,0.318000,28.412000,-51.412000,-76.511000,26.370000
2.837,0.783000,0.867000,0.341000,26.275000,-39.786000,-66.183000,26.320000
2.848,0.722000,0.958000,0.366000,15.031000,-31.252000,-46.817000,26.410000
2.856,0.627000,1.003000,0.377000,1.832000,-26.076000,-31.473000,26.510000
2.868,0.534000,0.978000,0.386000,-3.000000,-27.382000,-22.336000,26.410000
2.881,0.442000,0.931000,0.365000,-2.237000,-32.901000,-23.298000,26.370000
2.894,0.370000,0.872000,0.349000,3.649000,-46.939000,-28.328000,26.460000
2.900,0.407000,0.894000,0.349000,2.931000,-55.649000,-42.084000,26.370000
2.907,0.485000,0.862000,0.328000,3.122000,-60.099000,-51.565000,26.220000
2.920,0.573000,0.841000,0.315000,5.153000,-56.885000,-54.939000,26.410000
2.928,0.595000,0.843000,0.296000,2.840000,-50.374000,-49.832000,26.410000
2.939,0.565000,0.923000,0.318000,-1.832000,-45.550000,-38.176000,26.410000
2.946,0.507000,1.039000,0.359000,-11.046000,-43.092000,-20.878000,26.410000
2.958,0.456000,1.024000,0.357000,-21.130000,-40.427000,-13.168000,26.410000
2.971,0.447000,0.974000,0.362000,-24.786000,-39.130000,-12.939000,26.370000
2.978,0.503000,0.956000,0.358000,-29.527000,-29.954000,-22.374000,26.370000
2.990,0.573000,0.908000,0.343000,-23.542000,-12.977000,-34.626000,26.320000
2.996,0.590000,0.900000,0.321000,-20.389000,6.794000,-40.985000,26.320000
3.009,0.526000,0.895000,0.312000,-23.023000,20.298000,-43.511000,26.410000
3.016,0.461000,0.917000,0.306000,-23.534000,27.504000,-43.046000,26.410000
3.028,0.410000,1.006000,0.366000,-27.901000,20.458000,-34.290000,26.370000
3.041,0.420000,0.980000,0.392000,-37.031000,12.969000,-18.893000,26.370000
3.047,0.414000,0.907000,0.359000,-43.313000,0.992000,-1.344000,26.370000
3.060,0.405000,0.894000,0.323000,-49.588000,-10.565000,11.382000,26.370000
3.067,0.430000,0.834000,0.306000,-47.641000,-17.985000,12.397000,26.410000
3.081,0.476000,0.813000,0.301000,-36.939000,-19.229000,7.840000,26.410000
3.087,0.524000,0.840000,0.313000,-31.275000,-8.221000,3.840000,26.410000
3.099,0.521000,0.858000,0.332000,-26.397000,7.763000,1.107000,26.460000
3.106,0.479000,0.913000,0.348000,-25.931000,23.328000,-1.038000,26.460000
3.120,0.429000,0.949000,0.353000,-32.008000,35.321000,-3.053000,26.370000
3.127,0.379000,0.916000,0.352000,-34.061000,43.771000,-6.527000,26.270000
3.139,0.317000,0.917000,0.370000,-33.718000,43.611000,-10.046000,26.410000
3.150,0.265000,0.905000,0.368000,-37.977000,37.885000,-22.580000,26.410000
3.157,0.292000,0.868000,0.349000,-35.443000,26.282000,-37.855000,26.320000
3.170,0.410000,0.917000,0.376000,-32.656000,16.733000,-44.847000,26.410000
3.177,0.530000,0.925000,0.447000,-33.977000,12.130000,-40.015000,26.370000
3.190,0.686000,0.903000,0.405000,-46.321000,22.618000,-29.359000,26.370000
3.196,0.726000,0.821000,0.342000,-42.351000,28.321000,-14.847000,26.370000
3.208,0.706000,0.813000,0.330000,-33.969000,35.885000,-3.939000,26.460000
3.214,0.662000,0.841000,0.357000,-26.924000,41.916000,4.374000,26.410000
3.229,0.584000,0.957000,0.412000,-28.244000,52.313000,3.878000,26.410000
3.241,0.508000,0.873000,0.409000,-25.321000,54.901000,4.344000,26.410000
3.248,0.456000,0.826000,0.399000,-19.053000,55.229000,0.023000,26.410000
3.260,0.422000,0.872000,0.428000,-16.435000,50.336000,-4.344000,26.410000
3.267,0.394000,0.853000,0.440000,-18.206000,43.336000,-12.328000,26.460000
3.281,0.384000,0.828000,0.438000,-18.489000,31.832000,-21.359000,26.460000
3.287,0.419000,0.824000,0.441000,-18.252000,17.878000,-25.870000,26.370000
3.299,0.493000,0.776000,0.447000,-16.779000,6.718000,-25.275000,26.410000
3.306,0.562000,0.783000,0.441000,-16.137000,0.695000,-23.794000,26.410000
3.318,0.591000,0.787000,0.460000,-11.458000,-3.160000,-19.023000,26.410000
3.331,0.613000,0.826000,0.523000,-11.618000,-4.634000,-10.183000,26.410000
3.339,0.611000,0.878000,0.576000,-15.954000,-9.550000,1.031000,26.460000
3.350,0.573000,0.843000,0.581000,-19.832000,-12.092000,6.351000,26.460000
3.357,0.541000,0.799000,0.567000,-20.603000,-15.565000,6.092000,26.460000
3.370,0.511000,0.769000,0.548000,-18.122000,-18.298000,2.046000,26.510000
3.378,0.545000,0.741000,0.556000,-13.046000,-17.458000,-4.229000,26.410000
3.389,0.646000,0.782000,0.569000,-13.695000,-2.817000,-14.107000,26.410000
3.396,0.723000,0.795000,0.557000,-15.595000,13.450000,-17.977000,26.410000
3.409,0.744000,0.774000,0.538000,-15.573000,28.031000,-13.611000,26.460000
3.421,0.729000,0.770000,0.521000,-17.496000,35.511000,-4.351000,26.460000
3.428,0.673000,0.741000,0.500000,-18.992000,35.137000,5.282000,26.460000
3.440,0.632000,0.708000,0.498000,-14.649000,31.298000,12.947000,26.370000
3.447,0.588000,0.713000,0.507000,-7.893000,27.145000,18.878000,26.510000
3.460,0.553000,0.728000,0.518000,-3.015000,24.183000,21.214000,26.410000
3.467,0.501000,0.754000,0.544000,1.443000,21.191000,21.702000,26.410000
3.481,0.472000,0.791000,0.575000,0.542000,21.076000,20.015000,26.410000
3.488,0.397000,0.826000,0.576000,-2.221000,17.565000,17.252000,26.370000
3.500,0.333000,0.854000,0.586000,-7.771000,12.679000,11.557000,26.460000
3.507,0.250000,0.888000,0.594000,-14.405000,-0.244000,6.863000,26.460000
3.521,0.242000,0.929000,0.618000,-29.382000,-17.718000,-2.450000,26.370000
3.526,0.350000,0.947000,0.601000,-47.275000,-26.939000,-15.511000,26.410000
3.539,0.510000,0.888000,0.519000,-56.244000,-30.908000,-16.122000,26.410000
3.551,0.637000,0.746000,0.438000,-53.939000,-22.046000,-7.038000,26.410000
3.558,0.696000,0.659000,0.348000,-45.664000,-5.855000,5.282000,26.410000
3.570,0.685000,0.594000,0.289000,-28.298000,13.260000,14.252000,26.410000
3.577,0.603000,0.582000,0.280000,-7.954000,29.817000,17.939000,26.370000
3.590,0.500000,0.616000,0.299000,9.214000,40.962000,17.298000,26.370000
3.597,0.396000,0.656000,0.359000,21.710000,44.931000,15.099000,26.410000
3.609,0.314000,0.720000,0.429000,28.786000,42.626000,12.160000,26.410000
3.617,0.300000,0.796000,0.519000,25.107000,34.679000,8.351000,26.510000
3.631,0.318000,0.816000,0.560000,13.771000,23.382000,2.641000,26.320000
3.637,0.330000,0.804000,0.559000,1.817000,13.351000,0.221000,26.370000
3.650,0.345000,0.738000,0.527000,-4.588000,4.847000,0.069000,26.370000
3.671,0.372000,0.706000,0.491000,-6.160000,-1.008000,0.153000,26.460000
3.672,0.387000,0.700000,0.475000,-5.740000,-4.069000,1.557000,26.270000
