time_sec,ax,ay,az,gx,gy,gz,temp_c
0.020,0.511000,0.505000,0.499000,34.763000,22.824000,-6.542000,29.000000
0.027,0.505000,0.556000,0.556000,34.069000,28.443000,-6.901000,29.090000
0.039,0.474000,0.584000,0.510000,38.962000,21.031000,-8.939000,28.910000
0.046,0.506000,0.512000,0.516000,40.924000,14.542000,-18.870000,29.050000
0.058,0.484000,0.579000,0.603000,42.389000,-5.076000,-19.504000,29.050000
0.065,0.526000,0.635000,0.583000,34.450000,-7.359000,-19.916000,28.910000
0.078,0.565000,0.577000,0.538000,26.237000,-8.206000,-20.328000,28.910000
0.087,0.595000,0.599000,0.573000,23.183000,-8.740000,-20.603000,28.950000
0.097,0.626000,0.641000,0.609000,14.542000,-4.412000,-17.603000,29.050000
0.109,0.664000,0.614000,0.628000,10.870000,-4.382000,-15.626000,29.090000
0.117,0.702000,0.637000,0.562000,2.099000,3.893000,-12.985000,29.000000
0.129,0.673000,0.617000,0.602000,12.237000,1.855000,-16.206000,29.000000
0.136,0.647000,0.571000,0.552000,10.779000,0.824000,-12.863000,29.050000
0.149,0.677000,0.530000,0.565000,14.076000,5.473000,-13.031000,28.950000
0.156,0.596000,0.585000,0.562000,17.840000,6.351000,-11.031000,29.090000
0.168,0.618000,0.615000,0.562000,14.214000,17.122000,-8.817000,28.910000
0.175,0.596000,0.616000,0.588000,10.908000,18.053000,-10.557000,28.860000
0.188,0.559000,0.646000,0.560000,3.237000,18.351000,-13.053000,28.950000
0.196,0.603000,0.599000,0.558000,7.466000,15.962000,-18.176000,28.910000
0.207,0.611000,0.590000,0.562000,5.863000,12.832000,-20.603000,29.090000
0.219,0.667000,0.557000,0.601000,8.137000,15.649000,-22.977000,29.050000
0.226,0.635000,0.590000,0.549000,3.863000,14.038000,-20.374000,28.950000
0.239,0.627000,0.593000,0.558000,4.176000,11.679000,-18.466000,28.910000
0.247,0.591000,0.639000,0.519000,0.702000,11.000000,-16.855000,29.000000
0.258,0.609000,0.635000,0.547000,-0.481000,10.626000,-15.656000,29.000000
0.266,0.612000,0.689000,0.542000,-5.573000,12.550000,-13.519000,28.950000
0.278,0.633000,0.657000,0.512000,-8.374000,15.130000,-10.336000,29.050000
0.285,0.648000,0.635000,0.476000,-8.244000,21.115000,-2.267000,29.000000
0.298,0.616000,0.612000,0.438000,-5.076000,27.496000,6.053000,29.000000
0.310,0.609000,0.598000,0.387000,0.725000,33.282000,11.206000,29.090000
0.317,0.479000,0.604000,0.428000,7.183000,32.206000,8.641000,28.950000
0.331,0.407000,0.635000,0.471000,20.321000,21.733000,0.046000,29.090000
0.337,0.410000,0.670000,0.503000,19.382000,16.511000,-8.244000,29.000000
0.349,0.447000,0.694000,0.565000,18.939000,9.626000,-14.916000,28.950000
0.356,0.498000,0.675000,0.552000,11.832000,9.695000,-18.595000,29.050000
0.368,0.557000,0.630000,0.566000,10.061000,10.481000,-19.420000,28.910000
0.375,0.563000,0.630000,0.531000,3.191000,13.069000,-14.908000,29.000000
0.389,0.585000,0.607000,0.522000,1.832000,13.779000,-10.214000,28.950000
0.395,0.604000,0.603000,0.500000,1.267000,11.924000,-6.397000,29.050000
0.408,0.619000,0.589000,0.507000,2.145000,7.786000,-3.763000,28.950000
0.415,0.631000,0.604000,0.505000,3.939000,7.779000,0.397000,29.090000
0.428,0.601000,0.574000,0.508000,9.351000,5.496000,0.695000,28.910000
0.436,0.590000,0.618000,0.527000,8.802000,4.336000,1.916000,29.050000
0.448,0.592000,0.632000,0.546000,11.160000,6.145000,0.504000,29.050000
0.455,0.561000,0.632000,0.540000,9.626000,7.092000,-2.504000,28.910000
0.467,0.558000,0.648000,0.515000,6.260000,3.824000,-4.344000,28.910000
0.475,0.570000,0.627000,0.508000,4.229000,-1.473000,-3.916000,29.000000
0.487,0.622000,0.620000,0.494000,2.267000,-1.168000,-1.359000,28.950000
0.500,0.654000,0.621000,0.503000,1.672000,4.435000,4.229000,29.000000
0.507,0.625000,0.623000,0.483000,4.595000,5.962000,10.374000,29.000000
0.520,0.577000,0.617000,0.506000,11.710000,7.366000,11.176000,28.950000
0.527,0.499000,0.630000,0.474000,14.458000,10.229000,11.611000,29.050000
0.539,0.530000,0.619000,0.545000,17.855000,10.443000,8.237000,29.050000
0.548,0.522000,0.669000,0.552000,16.931000,10.718000,6.870000,29.090000
0.559,0.549000,0.659000,0.564000,13.198000,11.481000,3.344000,29.000000
0.566,0.585000,0.665000,0.601000,8.145000,20.176000,5.763000,28.950000
0.579,0.569000,0.622000,0.572000,5.397000,20.153000,9.954000,28.950000
0.586,0.556000,0.624000,0.527000,2.763000,18.298000,13.786000,29.000000
0.599,0.535000,0.630000,0.537000,5.641000,15.855000,15.786000,29.090000
0.605,0.541000,0.641000,0.509000,7.336000,17.122000,17.053000,29.140000
0.618,0.535000,0.622000,0.513000,10.580000,20.382000,19.679000,29.050000
0.625,0.543000,0.652000,0.503000,14.084000,26.771000,21.931000,29.000000
0.638,0.518000,0.668000,0.535000,14.992000,33.969000,27.122000,29.090000
0.650,0.499000,0.621000,0.531000,22.183000,43.061000,34.519000,29.090000
0.657,0.444000,0.614000,0.497000,33.687000,50.824000,40.771000,28.950000
0.669,0.294000,0.704000,0.609000,27.962000,46.374000,40.450000,28.950000
0.676,0.276000,0.719000,0.602000,18.718000,48.603000,29.053000,29.000000
0.690,0.191000,0.711000,0.635000,6.031000,36.641000,19.908000,29.000000
0.697,0.179000,0.667000,0.600000,-0.962000,14.031000,6.618000,29.050000
0.708,0.210000,0.638000,0.551000,-10.061000,-14.389000,-6.855000,29.050000
0.715,0.368000,0.623000,0.552000,-15.206000,-36.305000,-17.992000,28.910000
0.727,0.524000,0.616000,0.542000,-22.237000,-47.473000,-24.427000,29.000000
0.744,0.659000,0.586000,0.520000,-21.214000,-47.008000,-26.504000,29.050000
0.747,0.766000,0.533000,0.500000,-16.191000,-37.137000,-22.252000,28.950000
0.758,0.815000,0.521000,0.490000,-6.191000,-23.275000,-13.557000,29.000000
0.766,0.813000,0.512000,0.490000,4.542000,-6.214000,-3.634000,29.090000
0.778,0.774000,0.601000,0.534000,9.115000,13.992000,8.389000,29.000000
0.786,0.597000,0.658000,0.481000,10.282000,20.496000,15.229000,28.950000
0.798,0.615000,0.679000,0.563000,3.237000,32.061000,17.496000,29.050000
0.805,0.555000,0.641000,0.530000,1.191000,33.420000,14.214000,29.000000
0.817,0.525000,0.656000,0.496000,-1.053000,31.756000,10.794000,29.090000
0.825,0.539000,0.623000,0.454000,3.611000,22.489000,9.840000,29.090000
0.837,0.521000,0.654000,0.447000,3.573000,17.672000,12.908000,29.050000
0.850,0.501000,0.696000,0.453000,2.756000,9.710000,13.344000,29.000000
0.857,0.472000,0.691000,0.479000,4.916000,-2.565000,7.298000,28.910000
0.869,0.485000,0.694000,0.489000,5.389000,-10.901000,-1.267000,29.050000
0.876,0.520000,0.674000,0.518000,5.260000,-18.038000,-8.305000,29.050000
0.890,0.591000,0.666000,0.522000,3.206000,-22.557000,-12.901000,29.000000
0.896,0.678000,0.636000,0.532000,1.931000,-21.802000,-13.649000,29.000000
0.908,0.755000,0.604000,0.511000,-0.107000,-16.466000,-10.878000,29.090000
0.915,0.772000,0.571000,0.490000,0.931000,-13.962000,-6.198000,29.050000
0.928,0.793000,0.547000,0.523000,10.542000,-13.542000,-3.473000,28.950000
0.936,0.825000,0.557000,0.565000,17.504000,-15.008000,1.672000,28.910000
0.948,0.796000,0.581000,0.646000,19.412000,-16.763000,6.053000,29.000000
0.959,0.822000,0.609000,0.679000,18.275000,-14.153000,9.191000,28.950000
0.966,0.842000,0.612000,0.719000,12.122000,-8.221000,17.687000,28.950000
0.979,0.831000,0.585000,0.719000,5.466000,-2.924000,26.351000,29.090000
0.986,0.840000,0.554000,0.711000,2.275000,2.252000,32.359000,29.000000
0.999,0.749000,0.570000,0.754000,2.534000,5.290000,38.687000,29.000000
1.006,0.791000,0.576000,0.709000,3.076000,12.313000,44.137000,28.950000
1.019,0.751000,0.587000,0.717000,4.336000,9.374000,44.321000,29.000000
1.026,0.736000,0.611000,0.726000,4.351000,7.985000,44.427000,29.000000
1.038,0.704000,0.618000,0.724000,0.122000,7.748000,43.458000,29.050000
1.047,0.774000,0.621000,0.691000,-3.000000,9.672000,42.939000,29.050000
1.058,0.778000,0.611000,0.717000,-10.496000,11.282000,43.374000,29.000000
1.065,0.814000,0.572000,0.683000,-6.275000,11.786000,40.427000,29.000000
1.077,0.833000,0.585000,0.664000,-5.504000,14.252000,44.130000,28.910000
1.084,0.809000,0.578000,0.659000,-3.511000,13.275000,53.802000,29.050000
1.098,0.834000,0.595000,0.644000,-7.229000,20.115000,60.557000,28.950000
1.110,0.796000,0.641000,0.697000,-4.702000,21.695000,65.435000,28.910000
1.116,0.708000,0.644000,0.714000,-8.153000,17.221000,66.427000,29.000000
1.131,0.674000,0.605000,0.698000,-9.863000,6.634000,62.870000,28.950000
1.136,0.737000,0.655000,0.696000,-12.069000,10.092000,62.305000,29.050000
1.149,0.744000,0.642000,0.653000,-20.427000,12.824000,67.832000,29.000000
1.155,0.743000,0.585000,0.614000,-18.916000,12.885000,72.015000,29.000000
1.168,0.717000,0.595000,0.577000,-16.229000,15.855000,75.366000,28.910000
1.175,0.681000,0.559000,0.575000,-10.550000,11.519000,74.420000,28.950000
1.188,0.678000,0.595000,0.615000,-7.878000,12.962000,73.878000,29.000000
1.200,0.643000,0.620000,0.630000,-11.252000,16.443000,74.962000,29.000000
1.206,0.643000,0.573000,0.690000,-10.664000,15.786000,73.557000,29.000000
1.219,0.675000,0.595000,0.699000,-11.664000,23.710000,75.206000,28.950000
1.226,0.641000,0.554000,0.722000,-10.840000,28.840000,76.870000,28.950000
1.238,0.608000,0.542000,0.685000,-14.481000,31.038000,77.504000,29.000000
1.245,0.560000,0.632000,0.684000,-21.718000,34.855000,79.191000,28.910000
1.257,0.444000,0.599000,0.663000,-29.267000,20.992000,75.908000,28.860000
1.270,0.393000,0.555000,0.609000,-25.328000,-2.634000,65.908000,29.050000
1.277,0.428000,0.546000,0.632000,-25.458000,-18.313000,54.611000,29.000000
1.289,0.479000,0.457000,0.671000,-31.198000,-27.298000,44.061000,29.000000
1.297,0.660000,0.457000,0.681000,-32.565000,-20.206000,40.626000,29.050000
1.308,0.761000,0.463000,0.740000,-33.870000,-7.679000,46.466000,29.050000
1.315,0.803000,0.431000,0.750000,-29.840000,3.985000,53.565000,29.000000
1.328,0.811000,0.458000,0.733000,-31.603000,17.977000,63.336000,29.000000
1.336,0.562000,0.465000,0.678000,-38.321000,6.527000,67.115000,29.000000
1.348,0.475000,0.427000,0.630000,-40.229000,-12.305000,58.534000,29.050000
1.359,0.484000,0.485000,0.608000,-45.366000,-20.458000,50.420000,28.950000
1.366,0.596000,0.442000,0.648000,-46.985000,-29.718000,41.405000,28.910000
1.378,0.747000,0.344000,0.683000,-42.481000,-27.473000,34.588000,29.090000
1.386,0.859000,0.358000,0.724000,-38.779000,-14.542000,35.046000,29.050000
1.398,0.918000,0.336000,0.703000,-34.679000,-2.176000,41.229000,28.950000
1.404,0.881000,0.387000,0.676000,-34.603000,9.290000,51.679000,29.000000
1.417,0.711000,0.491000,0.699000,-43.336000,3.603000,59.191000,29.000000
1.431,0.604000,0.446000,0.677000,-51.908000,-16.969000,54.588000,28.950000
1.436,0.625000,0.460000,0.664000,-56.092000,-29.534000,49.718000,28.950000
1.449,0.633000,0.430000,0.613000,-63.901000,-42.221000,45.511000,28.950000
1.455,0.799000,0.324000,0.611000,-61.947000,-43.344000,42.000000,29.000000
1.468,0.925000,0.320000,0.602000,-55.237000,-28.473000,44.511000,29.000000
1.473,0.969000,0.268000,0.613000,-59.053000,-12.107000,50.893000,28.950000
1.487,0.960000,0.187000,0.520000,-47.885000,-1.214000,54.000000,28.950000
1.500,0.866000,0.238000,0.525000,-41.641000,2.260000,54.542000,29.000000
1.506,0.776000,0.239000,0.532000,-39.962000,-8.557000,50.435000,29.090000
1.519,0.698000,0.322000,0.535000,-38.198000,-23.038000,46.733000,29.000000
1.525,0.722000,0.395000,0.614000,-48.916000,-36.366000,48.282000,28.950000
1.538,0.768000,0.317000,0.596000,-58.595000,-46.557000,46.817000,28.950000
1.545,0.898000,0.247000,0.581000,-54.427000,-49.160000,47.107000,28.910000
1.557,0.948000,0.246000,0.595000,-49.160000,-38.252000,54.687000,29.000000
1.569,0.969000,0.219000,0.544000,-49.855000,-21.214000,63.351000,29.050000
1.576,0.946000,0.188000,0.570000,-41.412000,-1.687000,68.313000,28.950000
1.588,0.776000,0.179000,0.543000,-35.084000,0.672000,68.489000,29.000000
1.596,0.662000,0.183000,0.546000,-35.611000,-6.359000,61.748000,28.910000
1.608,0.547000,0.251000,0.593000,-41.237000,-26.763000,54.435000,28.950000
1.614,0.584000,0.249000,0.582000,-46.023000,-44.122000,46.069000,28.950000
1.627,0.738000,0.187000,0.640000,-46.908000,-45.267000,38.641000,29.050000
1.640,0.918000,0.169000,0.684000,-44.893000,-31.679000,39.023000,29.090000
1.646,0.961000,0.119000,0.716000,-42.351000,-19.443000,43.656000,29.000000
1.659,0.962000,0.089000,0.608000,-45.527000,-4.511000,49.634000,29.050000
1.665,0.926000,0.110000,0.655000,-43.603000,0.473000,60.595000,28.950000
1.678,0.833000,0.073000,0.619000,-36.847000,-8.733000,66.580000,28.910000
1.685,0.724000,0.171000,0.605000,-40.290000,-14.466000,67.947000,29.000000
1.698,0.619000,0.124000,0.559000,-41.802000,-31.076000,60.290000,29.000000
1.709,0.659000,0.111000,0.571000,-42.435000,-41.611000,50.031000,28.950000
1.716,0.801000,0.075000,0.595000,-40.290000,-37.153000,44.366000,28.910000
1.728,0.919000,0.120000,0.613000,-47.168000,-18.321000,51.160000,28.910000
1.737,0.918000,0.071000,0.592000,-54.420000,-2.130000,59.313000,29.000000
1.748,0.829000,0.021000,0.543000,-56.214000,2.527000,65.275000,29.050000
1.755,0.666000,-0.053000,0.480000,-47.061000,-15.351000,63.267000,29.050000
1.767,0.621000,-0.037000,0.497000,-36.382000,-33.947000,50.603000,29.000000
1.779,0.704000,-0.016000,0.553000,-29.366000,-45.473000,37.969000,29.000000
1.787,0.816000,0.004000,0.617000,-34.611000,-45.756000,31.466000,29.050000
1.799,0.991000,-0.025000,0.620000,-35.740000,-37.504000,32.672000,28.950000
1.805,1.029000,0.046000,0.631000,-44.092000,-28.183000,47.931000,29.000000
1.817,0.989000,0.037000,0.555000,-47.710000,-25.046000,63.756000,28.910000
1.831,0.954000,-0.014000,0.501000,-48.771000,-14.443000,71.947000,28.910000
1.837,0.820000,-0.041000,0.423000,-48.870000,-7.992000,75.763000,28.950000
1.849,0.700000,-0.168000,0.386000,-39.771000,-13.344000,63.718000,28.950000
1.855,0.698000,-0.080000,0.490000,-31.115000,-20.580000,50.076000,28.910000
1.867,0.734000,-0.010000,0.487000,-27.321000,-34.687000,41.122000,28.910000
1.881,0.839000,-0.070000,0.473000,-35.099000,-33.405000,37.908000,29.000000
1.887,0.948000,-0.126000,0.457000,-31.550000,-28.496000,39.947000,29.050000
1.899,0.953000,-0.103000,0.461000,-30.817000,-20.489000,47.000000,29.000000
1.905,0.943000,-0.106000,0.448000,-27.168000,-24.267000,57.382000,29.000000
1.918,0.771000,-0.049000,0.447000,-30.000000,-34.603000,67.427000,28.950000
1.923,0.645000,-0.096000,0.363000,-38.779000,-47.992000,59.702000,28.950000
1.937,0.648000,-0.141000,0.420000,-35.603000,-65.725000,44.840000,28.860000
1.949,0.836000,-0.184000,0.396000,-34.046000,-62.275000,33.076000,29.000000
1.956,1.011000,-0.184000,0.426000,-35.481000,-40.672000,29.855000,29.000000
1.968,1.112000,-0.193000,0.426000,-34.130000,-9.405000,35.397000,28.950000
1.975,1.030000,-0.128000,0.438000,-36.634000,7.908000,53.458000,28.950000
1.988,0.908000,-0.160000,0.385000,-37.924000,12.061000,69.336000,28.910000
2.000,0.733000,-0.169000,0.344000,-38.550000,7.573000,81.366000,29.000000
2.006,0.515000,-0.240000,0.247000,-37.061000,-3.595000,77.870000,28.950000
2.019,0.468000,-0.270000,0.251000,-26.450000,-15.557000,55.397000,29.050000
2.025,0.512000,-0.209000,0.305000,-20.489000,-24.863000,37.679000,28.950000
2.038,0.600000,-0.210000,0.352000,-20.489000,-27.489000,21.214000,29.000000
2.050,0.811000,-0.222000,0.450000,-22.412000,-15.580000,13.496000,28.910000
2.057,0.868000,-0.190000,0.450000,-34.450000,3.046000,21.336000,29.000000
2.069,0.843000,-0.196000,0.351000,-46.824000,15.672000,33.733000,28.860000
2.076,0.783000,-0.270000,0.231000,-46.511000,19.198000,42.969000,29.000000
2.088,0.633000,-0.396000,0.097000,-37.573000,5.405000,48.214000,29.000000
2.096,0.494000,-0.429000,0.048000,-28.847000,-13.130000,44.389000,28.910000
2.107,0.448000,-0.497000,0.090000,-15.336000,-38.916000,28.588000,29.050000
2.119,0.595000,-0.356000,0.250000,-0.382000,-59.137000,14.176000,28.950000
2.126,0.786000,-0.281000,0.405000,-3.412000,-50.954000,5.534000,28.910000
2.139,0.888000,-0.286000,0.484000,-16.145000,-32.481000,10.473000,28.910000
2.146,0.921000,-0.272000,0.479000,-33.893000,-8.107000,25.656000,29.050000
2.158,0.775000,-0.243000,0.355000,-51.466000,5.176000,49.832000,28.950000
2.165,0.615000,-0.343000,0.195000,-61.786000,3.931000,65.305000,29.000000
2.177,0.456000,-0.384000,0.078000,-56.405000,-0.519000,64.908000,29.000000
2.190,0.346000,-0.442000,-0.004000,-42.496000,-12.771000,46.511000,29.000000
2.198,0.392000,-0.419000,0.036000,-16.244000,-18.336000,15.992000,29.050000
2.208,0.480000,-0.391000,0.129000,-11.099000,-16.649000,-1.534000,28.950000
2.215,0.603000,-0.385000,0.122000,-7.198000,-5.618000,-5.168000,29.000000
2.228,0.655000,-0.415000,0.129000,-10.374000,2.290000,-1.641000,29.000000
2.235,0.600000,-0.495000,0.065000,-7.855000,2.672000,4.023000,28.910000
2.248,0.569000,-0.544000,0.068000,3.069000,-8.832000,9.992000,28.950000
2.260,0.573000,-0.440000,0.151000,9.351000,-13.664000,17.527000,28.910000
2.267,0.573000,-0.442000,0.224000,9.336000,-6.557000,15.137000,29.000000
2.281,0.541000,-0.438000,0.265000,10.244000,-3.191000,16.519000,29.000000
2.286,0.486000,-0.349000,0.277000,2.573000,5.794000,17.939000,28.950000
2.299,0.456000,-0.412000,0.284000,-2.855000,11.626000,14.496000,29.050000
2.305,0.392000,-0.397000,0.253000,-4.176000,16.718000,12.267000,29.090000
2.318,0.380000,-0.407000,0.229000,-8.901000,23.015000,3.435000,29.090000
2.325,0.376000,-0.461000,0.186000,-6.267000,24.656000,-5.130000,28.860000
2.338,0.346000,-0.407000,0.134000,-6.534000,24.168000,-10.191000,28.950000
2.349,0.385000,-0.469000,0.089000,-3.374000,13.710000,-16.069000,29.000000
2.356,0.459000,-0.464000,0.110000,3.969000,4.344000,-15.588000,29.000000
2.369,0.491000,-0.328000,0.135000,3.473000,7.328000,-11.275000,29.000000
2.376,0.501000,-0.355000,0.137000,0.260000,12.382000,-12.550000,29.050000
2.389,0.464000,-0.380000,0.123000,0.130000,19.344000,-17.061000,29.050000
2.396,0.412000,-0.473000,0.095000,5.794000,13.878000,-29.863000,29.000000
2.408,0.506000,-0.525000,0.142000,20.015000,6.031000,-45.649000,29.000000
2.415,0.648000,-0.485000,0.253000,32.496000,3.427000,-52.962000,29.000000
2.427,0.768000,-0.412000,0.374000,30.328000,7.947000,-46.664000,29.050000
2.439,0.886000,-0.358000,0.490000,23.885000,20.664000,-30.809000,29.050000
2.446,0.672000,-0.243000,0.398000,9.382000,34.611000,-13.519000,29.000000
2.458,0.555000,-0.293000,0.289000,-6.405000,34.450000,-8.038000,29.000000
2.465,0.529000,-0.390000,0.209000,-4.511000,38.786000,-16.000000,29.050000
2.478,0.434000,-0.397000,0.124000,9.260000,33.351000,-28.779000,29.050000
2.485,0.469000,-0.376000,0.148000,20.282000,35.863000,-42.611000,29.000000
2.498,0.534000,-0.389000,0.232000,30.840000,36.458000,-52.008000,29.000000
2.509,0.590000,-0.226000,0.321000,29.427000,47.466000,-53.473000,28.950000
2.516,0.661000,-0.230000,0.338000,18.542000,58.122000,-51.649000,28.950000
2.528,0.689000,-0.263000,0.292000,12.779000,73.656000,-48.931000,28.950000
2.536,0.541000,-0.334000,0.163000,12.527000,67.229000,-49.328000,29.000000
2.548,0.522000,-0.370000,0.147000,28.611000,45.641000,-58.626000,28.910000
2.560,0.591000,-0.340000,0.248000,46.420000,34.893000,-65.702000,28.950000
2.567,0.688000,-0.288000,0.419000,56.191000,30.176000,-69.939000,29.050000
2.579,0.718000,-0.201000,0.525000,54.046000,28.351000,-67.687000,28.910000
2.586,0.773000,-0.156000,0.637000,41.855000,38.183000,-57.901000,29.000000
2.598,0.749000,-0.046000,0.643000,16.947000,37.626000,-41.695000,29.000000
2.605,0.664000,-0.118000,0.515000,-5.466000,37.221000,-28.878000,28.950000
2.617,0.595000,-0.220000,0.305000,-16.687000,41.313000,-26.214000,28.950000
2.631,0.520000,-0.322000,0.103000,-3.267000,29.817000,-44.015000,29.000000
2.637,0.591000,-0.344000,0.091000,21.725000,27.290000,-71.252000,29.000000
2.649,0.769000,-0.243000,0.196000,48.771000,29.290000,-89.519000,29.050000
2.655,0.963000,-0.206000,0.366000,63.466000,38.176000,-93.863000,29.050000
2.668,1.013000,-0.187000,0.560000,67.802000,47.519000,-79.962000,29.000000
2.675,0.966000,0.016000,0.755000,62.817000,47.557000,-54.076000,28.910000
2.688,0.819000,0.202000,0.793000,33.985000,44.962000,-36.664000,28.910000
2.700,0.718000,0.028000,0.625000,6.832000,31.756000,-30.137000,28.950000
2.706,0.699000,-0.146000,0.449000,5.191000,28.229000,-41.603000,28.950000
2.719,0.728000,-0.206000,0.318000,17.802000,31.198000,-60.939000,28.910000
2.726,0.832000,-0.197000,0.338000,37.542000,31.366000,-74.198000,29.000000
2.738,0.917000,-0.130000,0.458000,49.832000,28.573000,-74.687000,28.950000
2.745,0.945000,-0.069000,0.599000,55.824000,30.977000,-58.695000,28.950000
2.757,0.931000,0.148000,0.775000,44.137000,40.763000,-38.466000,28.910000
2.770,0.905000,0.161000,0.757000,18.023000,53.176000,-29.840000,29.000000
2.777,0.838000,0.001000,0.618000,8.198000,61.282000,-25.282000,28.810000
2.790,0.654000,-0.112000,0.428000,15.954000,45.824000,-27.718000,28.910000
2.797,0.587000,-0.156000,0.339000,34.695000,20.565000,-44.198000,28.950000
2.808,0.668000,-0.133000,0.407000,54.977000,3.771000,-61.832000,28.910000
2.815,0.756000,-0.068000,0.551000,70.656000,-7.733000,-70.374000,29.000000
2.827,0.834000,0.151000,0.756000,68.763000,-2.748000,-65.763000,28.950000
2.840,0.886000,0.316000,0.883000,42.489000,9.397000,-56.985000,29.050000
2.847,0.951000,0.179000,0.857000,21.573000,22.809000,-50.809000,29.000000
2.859,0.920000,0.077000,0.656000,17.962000,34.099000,-44.275000,28.910000
2.866,0.888000,0.010000,0.520000,22.099000,37.954000,-37.397000,28.910000
2.880,0.847000,-0.011000,0.468000,35.542000,33.573000,-37.672000,28.950000
2.885,0.824000,-0.034000,0.505000,46.916000,27.344000,-39.298000,29.050000
2.898,0.749000,-0.029000,0.576000,62.000000,15.916000,-33.992000,29.000000
2.904,0.623000,0.247000,0.756000,60.000000,7.588000,-26.695000,28.910000
2.917,0.616000,0.309000,0.867000,46.534000,6.092000,-35.450000,28.950000
2.930,0.670000,0.271000,0.834000,32.015000,16.336000,-45.206000,28.950000
2.937,0.678000,0.204000,0.729000,24.168000,21.412000,-51.756000,28.910000
2.949,0.771000,0.186000,0.659000,18.130000,25.191000,-54.939000,28.910000
2.956,0.815000,0.151000,0.602000,20.580000,25.008000,-50.779000,28.910000
2.968,0.787000,0.102000,0.534000,27.244000,17.641000,-43.756000,29.050000
2.975,0.716000,0.168000,0.573000,34.534000,13.298000,-34.634000,28.950000
2.988,0.646000,0.310000,0.727000,27.489000,3.519000,-30.427000,28.910000
2.993,0.707000,0.212000,0.710000,21.443000,1.542000,-37.664000,28.910000
3.008,0.721000,0.309000,0.750000,12.237000,12.924000,-40.412000,28.950000
3.019,0.777000,0.233000,0.660000,9.427000,15.718000,-45.473000,28.950000
3.026,0.807000,0.132000,0.635000,10.947000,17.115000,-48.977000,29.090000
3.039,0.897000,0.150000,0.606000,17.038000,14.489000,-44.672000,28.910000
3.046,0.909000,0.143000,0.576000,25.130000,9.672000,-33.901000,29.090000
3.058,0.827000,0.145000,0.592000,36.046000,3.794000,-20.458000,28.950000
3.065,0.723000,0.256000,0.633000,39.244000,1.031000,-17.718000,28.950000
3.078,0.657000,0.294000,0.662000,40.656000,-0.847000,-28.641000,29.000000
3.086,0.623000,0.299000,0.681000,39.588000,3.267000,-40.939000,28.910000
3.098,0.709000,0.339000,0.703000,36.053000,6.756000,-53.916000,28.950000
3.109,0.801000,0.255000,0.730000,29.687000,12.710000,-62.183000,28.950000
3.116,0.936000,0.185000,0.690000,33.420000,15.679000,-62.107000,29.000000
3.130,0.941000,0.195000,0.687000,39.282000,8.595000,-53.603000,29.000000
3.137,0.948000,0.186000,0.673000,44.954000,5.000000,-43.679000,28.910000
3.148,0.905000,0.230000,0.708000,49.153000,0.397000,-33.939000,28.950000
3.155,0.826000,0.272000,0.745000,48.122000,-0.802000,-28.252000,29.050000
3.168,0.731000,0.382000,0.832000,45.031000,-1.137000,-27.878000,28.910000
3.175,0.687000,0.427000,0.864000,31.359000,-2.672000,-37.641000,28.910000
3.188,0.687000,0.379000,0.852000,24.557000,-6.916000,-51.260000,28.950000
3.199,0.757000,0.292000,0.791000,22.420000,-10.908000,-62.519000,28.950000
3.206,0.857000,0.264000,0.750000,19.863000,-10.748000,-64.214000,28.910000
3.218,0.912000,0.232000,0.691000,21.618000,-11.618000,-57.817000,29.090000
3.225,0.923000,0.227000,0.717000,24.641000,-8.061000,-44.687000,29.000000
3.239,0.882000,0.276000,0.706000,27.786000,-5.237000,-28.573000,28.950000
3.245,0.886000,0.254000,0.759000,22.649000,1.511000,-28.565000,28.950000
3.257,0.774000,0.313000,0.779000,20.985000,1.084000,-26.206000,29.090000
3.270,0.648000,0.386000,0.732000,19.618000,-10.626000,-27.840000,29.000000
3.276,0.637000,0.388000,0.711000,15.763000,-20.214000,-35.031000,29.050000
3.289,0.703000,0.407000,0.716000,13.573000,-17.122000,-39.321000,29.050000
3.296,0.738000,0.405000,0.708000,9.496000,-9.718000,-39.244000,29.000000
3.308,0.735000,0.350000,0.687000,16.130000,-4.718000,-36.366000,28.910000
3.315,0.705000,0.411000,0.730000,15.740000,-4.870000,-32.687000,29.000000
3.327,0.675000,0.387000,0.742000,15.969000,-4.626000,-36.412000,29.000000
3.341,0.672000,0.370000,0.729000,13.084000,1.076000,-39.397000,28.950000
3.349,0.638000,0.437000,0.739000,11.420000,3.130000,-41.038000,29.090000
3.359,0.626000,0.454000,0.739000,6.435000,2.748000,-45.733000,29.000000
3.366,0.705000,0.448000,0.760000,0.855000,4.435000,-49.985000,29.050000
3.380,0.739000,0.466000,0.779000,-1.748000,-1.519000,-47.084000,29.050000
3.386,0.763000,0.423000,0.729000,-8.076000,-4.092000,-38.626000,29.050000
3.398,0.777000,0.336000,0.657000,-6.160000,-3.977000,-27.282000,29.090000
3.405,0.770000,0.332000,0.607000,5.183000,-0.076000,-18.885000,29.000000
3.418,0.747000,0.342000,0.580000,13.298000,11.237000,-17.527000,28.950000
3.425,0.634000,0.393000,0.587000,15.595000,18.840000,-19.023000,28.950000
3.438,0.564000,0.474000,0.605000,15.992000,18.969000,-27.504000,29.000000
3.450,0.522000,0.476000,0.644000,11.542000,12.130000,-37.931000,29.000000
3.456,0.512000,0.467000,0.632000,6.366000,2.885000,-47.015000,29.000000
3.469,0.564000,0.488000,0.633000,1.137000,-2.359000,-53.573000,29.050000
3.476,0.606000,0.440000,0.635000,0.153000,-8.809000,-56.130000,29.050000
3.489,0.655000,0.434000,0.621000,2.008000,-13.962000,-55.885000,29.000000
3.495,0.688000,0.539000,0.687000,-4.069000,-14.733000,-56.389000,29.000000
3.507,0.749000,0.507000,0.684000,-8.489000,-19.954000,-56.702000,29.000000
3.520,0.760000,0.441000,0.643000,-9.641000,-21.206000,-52.382000,28.950000
3.527,0.784000,0.387000,0.563000,-4.504000,-22.740000,-47.519000,28.910000
3.539,0.801000,0.389000,0.512000,-0.183000,-20.336000,-43.779000,29.090000
3.546,0.778000,0.397000,0.505000,3.443000,-13.672000,-41.229000,29.000000
3.558,0.728000,0.403000,0.493000,4.992000,-9.321000,-39.832000,29.050000
3.566,0.667000,0.425000,0.503000,9.519000,-8.496000,-39.267000,28.950000
3.578,0.661000,0.457000,0.524000,18.855000,-9.878000,-43.336000,28.910000
3.585,0.643000,0.504000,0.595000,24.099000,-17.969000,-41.908000,29.000000
3.598,0.566000,0.567000,0.575000,23.458000,-22.817000,-45.046000,28.950000
3.609,0.539000,0.574000,0.615000,20.115000,-26.893000,-47.672000,29.050000
3.616,0.547000,0.614000,0.644000,16.588000,-31.603000,-52.802000,28.950000
3.628,0.576000,0.592000,0.666000,11.733000,-33.145000,-54.832000,29.000000
3.636,0.607000,0.563000,0.635000,5.985000,-30.183000,-55.427000,29.000000
3.648,0.647000,0.534000,0.590000,3.542000,-26.504000,-53.763000,28.950000
3.655,0.659000,0.558000,0.620000,1.359000,-22.695000,-45.725000,29.050000
3.667,0.628000,0.552000,0.541000,-3.977000,-14.038000,-38.366000,29.000000
3.680,0.585000,0.569000,0.523000,-2.611000,-13.168000,-34.672000,29.000000
3.686,0.548000,0.649000,0.542000,0.229000,-10.855000,-35.351000,29.000000
3.699,0.528000,0.684000,0.538000,0.160000,-10.603000,-40.962000,28.860000
3.705,0.557000,0.650000,0.572000,9.374000,-7.939000,-51.420000,28.950000
3.718,0.566000,0.654000,0.545000,4.000000,-8.382000,-59.221000,29.000000
3.725,0.575000,0.615000,0.543000,9.794000,-16.847000,-64.206000,29.000000
3.738,0.597000,0.567000,0.518000,7.893000,-24.916000,-67.809000,29.050000
3.750,0.621000,0.593000,0.512000,12.763000,-37.786000,-67.313000,29.050000
3.756,0.650000,0.619000,0.503000,8.160000,-42.962000,-63.542000,29.000000
3.769,0.732000,0.567000,0.509000,10.282000,-43.740000,-57.603000,29.090000
3.776,0.758000,0.603000,0.537000,11.985000,-38.237000,-53.618000,29.050000
3.788,0.768000,0.641000,0.567000,5.267000,-22.565000,-47.053000,29.050000
3.795,0.739000,0.589000,0.547000,6.275000,-15.840000,-44.023000,28.950000
3.807,0.686000,0.594000,0.523000,13.107000,-21.069000,-43.817000,28.910000
3.820,0.638000,0.571000,0.545000,21.130000,-23.168000,-43.947000,29.000000
3.826,0.627000,0.621000,0.553000,15.870000,-20.947000,-42.496000,28.950000
3.839,0.625000,0.672000,0.597000,11.931000,-21.695000,-39.687000,28.950000
3.846,0.706000,0.638000,0.598000,4.763000,-11.901000,-38.420000,29.000000
3.858,0.684000,0.624000,0.575000,-2.542000,-11.176000,-34.092000,29.090000
3.865,0.709000,0.622000,0.540000,-2.260000,-9.786000,-27.153000,29.000000
3.877,0.664000,0.585000,0.480000,-3.580000,-12.718000,-20.351000,28.950000
3.890,0.648000,0.592000,0.463000,0.267000,-9.931000,-15.267000,28.950000
3.897,0.584000,0.603000,0.477000,8.252000,-9.962000,-11.870000,29.000000
3.909,0.624000,0.640000,0.535000,13.084000,3.641000,-12.534000,29.000000
3.916,0.644000,0.683000,0.624000,11.786000,19.931000,-14.763000,28.950000
3.929,0.588000,0.690000,0.606000,5.061000,25.794000,-14.962000,28.950000
3.936,0.529000,0.675000,0.559000,-0.580000,23.221000,-17.450000,29.000000
3.948,0.530000,0.688000,0.538000,-8.435000,14.603000,-21.321000,29.000000
3.955,0.531000,0.662000,0.499000,-11.748000,2.985000,-24.099000,29.140000
3.966,0.541000,0.578000,0.476000,3.466000,-11.038000,-23.191000,29.050000
3.988,0.541000,0.578000,0.476000,3.466000,-11.038000,-23.191000,112.080000
4.016,0.541000,0.578000,0.476000,3.466000,-11.038000,-23.191000,112.080000
4.038,0.541000,0.578000,0.476000,3.466000,-11.038000,-23.191000,112.080000
4.060,0.541000,0.578000,0.476000,3.466000,-11.038000,-23.191000,112.080000
4.088,0.541000,0.578000,0.476000,3.466000,-11.038000,-23.191000,112.080000
4.110,0.541000,0.578000,0.476000,3.466000,-11.038000,-23.191000,112.080000
4.133,0.541000,0.578000,0.476000,3.466000,-11.038000,-23.191000,112.080000
4.160,0.541000,0.578000,0.476000,3.466000,-11.038000,-23.191000,112.080000
4.183,0.541000,0.578000,0.476000,3.466000,-11.038000,-23.191000,112.080000
4.205,0.541000,0.578000,0.476000,3.466000,-11.038000,-23.191000,112.080000
4.233,0.541000,0.578000,0.476000,3.466000,-11.038000,-23.191000,112.080000
4.255,0.541000,0.578000,0.476000,3.466000,-11.038000,-23.191000,112.080000
4.277,0.541000,0.578000,0.476000,3.466000,-11.038000,-23.191000,112.080000
4.305,0.541000,0.578000,0.476000,3.466000,-11.038000,-23.191000,112.080000
4.327,0.541000,0.578000,0.476000,3.466000,-11.038000,-23.191000,112.080000
4.350,0.541000,0.578000,0.476000,3.466000,-11.038000,-23.191000,112.080000
4.377,0.541000,0.578000,0.476000,3.466000,-11.038000,-23.191000,112.080000
4.401,0.541000,0.578000,0.476000,3.466000,-11.038000,-23.191000,112.080000
4.434,0.541000,0.578000,0.476000,3.466000,-11.038000,-23.191000,112.080000
time_sec,ax,ay,az,gx,gy,gz,temp_c
0.014,0.000000,0.000000,0.000000,0.000000,0.000000,0.000000,36.530000
0.015,0.000000,0.000000,0.000000,0.000000,0.000000,0.000000,36.530000
0.021,0.000000,0.000000,0.000000,0.000000,0.000000,0.000000,36.530000
0.032,0.000000,0.000000,0.000000,0.000000,0.000000,0.000000,36.530000
0.037,0.000000,0.000000,0.000000,0.000000,0.000000,0.000000,36.530000
0.048,0.000000,0.000000,0.000000,0.000000,0.000000,0.000000,36.530000
0.054,0.000000,0.000000,0.000000,0.000000,0.000000,0.000000,36.530000
0.065,0.000000,0.000000,0.000000,0.000000,0.000000,0.000000,36.530000
0.070,0.000000,0.000000,0.000000,0.000000,0.000000,0.000000,36.530000
0.084,0.000000,0.000000,0.000000,0.000000,0.000000,0.000000,36.530000
0.088,0.000000,0.000000,0.000000,0.000000,0.000000,0.000000,36.530000
0.099,0.000000,0.000000,0.000000,0.000000,0.000000,0.000000,36.530000
0.105,0.000000,0.000000,0.000000,0.000000,0.000000,0.000000,36.530000
0.115,0.000000,0.000000,0.000000,0.000000,0.000000,0.000000,36.530000
0.120,0.000000,0.000000,0.000000,0.000000,0.000000,0.000000,36.530000
0.132,0.000000,0.000000,0.000000,0.000000,0.000000,0.000000,36.530000
0.137,0.000000,0.000000,0.000000,0.000000,0.000000,0.000000,36.530000
0.148,0.000000,0.000000,0.000000,0.000000,0.000000,0.000000,36.530000
0.154,0.000000,0.000000,0.000000,0.000000,0.000000,0.000000,36.530000
0.165,0.000000,0.000000,0.000000,0.000000,0.000000,0.000000,36.530000
0.171,0.000000,0.000000,0.000000,0.000000,0.000000,0.000000,36.530000
0.182,0.000000,0.000000,0.000000,0.000000,0.000000,0.000000,36.530000
0.187,0.000000,0.000000,0.000000,0.000000,0.000000,0.000000,36.530000
0.198,0.000000,0.000000,0.000000,0.000000,0.000000,0.000000,36.530000
0.204,0.000000,0.000000,0.000000,0.000000,0.000000,0.000000,36.530000
0.215,0.000000,0.000000,0.000000,0.000000,0.000000,0.000000,36.530000
0.221,0.000000,0.000000,0.000000,0.000000,0.000000,0.000000,36.530000
0.232,0.000000,0.000000,0.000000,0.000000,0.000000,0.000000,36.530000
0.239,0.000000,0.000000,0.000000,0.000000,0.000000,0.000000,36.530000
0.248,0.000000,0.000000,0.000000,0.000000,0.000000,0.000000,36.530000
0.254,0.000000,0.000000,0.000000,0.000000,0.000000,0.000000,36.530000
0.265,0.000000,0.000000,0.000000,0.000000,0.000000,0.000000,36.530000
0.272,0.000000,0.000000,0.000000,0.000000,0.000000,0.000000,36.530000
0.282,0.000000,0.000000,0.000000,0.000000,0.000000,0.000000,36.530000
0.288,0.000000,0.000000,0.000000,0.000000,0.000000,0.000000,36.530000
0.298,0.000000,0.000000,0.000000,0.000000,0.000000,0.000000,36.530000
0.304,0.000000,0.000000,0.000000,0.000000,0.000000,0.000000,36.530000
0.315,0.000000,0.000000,0.000000,0.000000,0.000000,0.000000,36.530000
0.322,0.000000,0.000000,0.000000,0.000000,0.000000,0.000000,36.530000
0.332,0.000000,0.000000,0.000000,0.000000,0.000000,0.000000,36.530000
0.338,0.000000,0.000000,0.000000,0.000000,0.000000,0.000000,36.530000
0.349,0.000000,0.000000,0.000000,0.000000,0.000000,0.000000,36.530000
0.354,0.000000,0.000000,0.000000,0.000000,0.000000,0.000000,36.530000
0.365,0.000000,0.000000,0.000000,0.000000,0.000000,0.000000,36.530000
0.372,0.000000,0.000000,0.000000,0.000000,0.000000,0.000000,36.530000
0.382,0.000000,0.000000,0.000000,0.000000,0.000000,0.000000,36.530000
0.388,0.000000,0.000000,0.000000,0.000000,0.000000,0.000000,36.530000
0.398,0.000000,0.000000,0.000000,0.000000,0.000000,0.000000,36.530000
0.404,0.000000,0.000000,0.000000,0.000000,0.000000,0.000000,36.530000
0.415,0.000000,0.000000,0.000000,0.000000,0.000000,0.000000,36.530000
0.422,0.000000,0.000000,0.000000,0.000000,0.000000,0.000000,36.530000
0.432,0.000000,0.000000,0.000000,0.000000,0.000000,0.000000,36.530000
0.439,0.000000,0.000000,0.000000,0.000000,0.000000,0.000000,36.530000
0.449,0.000000,0.000000,0.000000,0.000000,0.000000,0.000000,36.530000
0.454,0.000000,0.000000,0.000000,0.000000,0.000000,0.000000,36.530000
0.465,0.000000,0.000000,0.000000,0.000000,0.000000,0.000000,36.530000
0.472,0.000000,0.000000,0.000000,0.000000,0.000000,0.000000,36.530000
0.482,0.000000,0.000000,0.000000,0.000000,0.000000,0.000000,36.530000
0.488,0.000000,0.000000,0.000000,0.000000,0.000000,0.000000,36.530000
0.498,0.000000,0.000000,0.000000,0.000000,0.000000,0.000000,36.530000
0.504,0.000000,0.000000,0.000000,0.000000,0.000000,0.000000,36.530000
0.515,0.000000,0.000000,0.000000,0.000000,0.000000,0.000000,36.530000
0.522,0.000000,0.000000,0.000000,0.000000,0.000000,0.000000,36.530000
0.532,0.000000,0.000000,0.000000,0.000000,0.000000,0.000000,36.530000
0.538,0.000000,0.000000,0.000000,0.000000,0.000000,0.000000,36.530000
0.548,0.000000,0.000000,0.000000,0.000000,0.000000,0.000000,36.530000
0.554,0.000000,0.000000,0.000000,0.000000,0.000000,0.000000,36.530000
0.565,0.000000,0.000000,0.000000,0.000000,0.000000,0.000000,36.530000
0.572,0.000000,0.000000,0.000000,0.000000,0.000000,0.000000,36.530000
0.582,0.000000,0.000000,0.000000,0.000000,0.000000,0.000000,36.530000
0.589,0.000000,0.000000,0.000000,0.000000,0.000000,0.000000,36.530000
0.598,0.000000,0.000000,0.000000,0.000000,0.000000,0.000000,36.530000
0.604,0.000000,0.000000,0.000000,0.000000,0.000000,0.000000,36.530000
0.615,0.000000,0.000000,0.000000,0.000000,0.000000,0.000000,36.530000
0.622,0.000000,0.000000,0.000000,0.000000,0.000000,0.000000,36.530000
0.632,0.000000,0.000000,0.000000,0.000000,0.000000,0.000000,36.530000
0.639,0.000000,0.000000,0.000000,0.000000,0.000000,0.000000,36.530000
0.648,0.000000,0.000000,0.000000,0.000000,0.000000,0.000000,36.530000
0.654,0.000000,0.000000,0.000000,0.000000,0.000000,0.000000,36.530000
0.665,0.000000,0.000000,0.000000,0.000000,0.000000,0.000000,36.530000
0.672,0.000000,0.000000,0.000000,0.000000,0.000000,0.000000,36.530000
0.682,0.000000,0.000000,0.000000,0.000000,0.000000,0.000000,36.530000
0.688,0.000000,0.000000,0.000000,0.000000,0.000000,0.000000,36.530000
0.698,0.000000,0.000000,0.000000,0.000000,0.000000,0.000000,36.530000
0.704,0.000000,0.000000,0.000000,0.000000,0.000000,0.000000,36.530000
0.715,0.000000,0.000000,0.000000,0.000000,0.000000,0.000000,36.530000
0.723,0.000000,0.000000,0.000000,0.000000,0.000000,0.000000,36.530000
0.732,0.000000,0.000000,0.000000,0.000000,0.000000,0.000000,36.530000
0.738,0.000000,0.000000,0.000000,0.000000,0.000000,0.000000,36.530000
0.748,0.000000,0.000000,0.000000,0.000000,0.000000,0.000000,36.530000
0.754,0.000000,0.000000,0.000000,0.000000,0.000000,0.000000,36.530000
0.765,0.000000,0.000000,0.000000,0.000000,0.000000,0.000000,36.530000
0.772,0.000000,0.000000,0.000000,0.000000,0.000000,0.000000,36.530000
0.782,0.000000,0.000000,0.000000,0.000000,0.000000,0.000000,36.530000
0.788,0.000000,0.000000,0.000000,0.000000,0.000000,0.000000,36.530000
0.798,0.000000,0.000000,0.000000,0.000000,0.000000,0.000000,36.530000
0.804,0.000000,0.000000,0.000000,0.000000,0.000000,0.000000,36.530000
0.815,0.000000,0.000000,0.000000,0.000000,0.000000,0.000000,36.530000
0.822,0.000000,0.000000,0.000000,0.000000,0.000000,0.000000,36.530000
0.832,0.000000,0.000000,0.000000,0.000000,0.000000,0.000000,36.530000
0.838,0.000000,0.000000,0.000000,0.000000,0.000000,0.000000,36.530000
0.848,0.000000,0.000000,0.000000,0.000000,0.000000,0.000000,36.530000
0.854,0.000000,0.000000,0.000000,0.000000,0.000000,0.000000,36.530000
0.865,0.000000,0.000000,0.000000,0.000000,0.000000,0.000000,36.530000
0.872,0.000000,0.000000,0.000000,0.000000,0.000000,0.000000,36.530000
0.882,0.000000,0.000000,0.000000,0.000000,0.000000,0.000000,36.530000
0.888,0.000000,0.000000,0.000000,0.000000,0.000000,0.000000,36.530000
0.899,0.000000,0.000000,0.000000,0.000000,0.000000,0.000000,36.530000
0.904,0.000000,0.000000,0.000000,0.000000,0.000000,0.000000,36.530000
0.915,0.000000,0.000000,0.000000,0.000000,0.000000,0.000000,36.530000
0.922,0.000000,0.000000,0.000000,0.000000,0.000000,0.000000,36.530000
0.932,0.000000,0.000000,0.000000,0.000000,0.000000,0.000000,36.530000
0.939,0.000000,0.000000,0.000000,0.000000,0.000000,0.000000,36.530000
0.948,0.000000,0.000000,0.000000,0.000000,0.000000,0.000000,36.530000
0.954,0.000000,0.000000,0.000000,0.000000,0.000000,0.000000,36.530000
0.965,0.000000,0.000000,0.000000,0.000000,0.000000,0.000000,36.530000
0.972,0.000000,0.000000,0.000000,0.000000,0.000000,0.000000,36.530000
0.982,0.000000,0.000000,0.000000,0.000000,0.000000,0.000000,36.530000
0.988,0.000000,0.000000,0.000000,0.000000,0.000000,0.000000,36.530000
0.998,0.000000,0.000000,0.000000,0.000000,0.000000,0.000000,36.530000
1.004,0.000000,0.000000,0.000000,0.000000,0.000000,0.000000,36.530000
1.015,0.000000,0.000000,0.000000,0.000000,0.000000,0.000000,36.530000
1.022,0.000000,0.000000,0.000000,0.000000,0.000000,0.000000,36.530000
1.032,0.000000,0.000000,0.000000,0.000000,0.000000,0.000000,36.530000
1.038,0.000000,0.000000,0.000000,0.000000,0.000000,0.000000,36.530000
1.048,0.000000,0.000000,0.000000,0.000000,0.000000,0.000000,36.530000
1.054,0.000000,0.000000,0.000000,0.000000,0.000000,0.000000,36.530000
1.065,0.000000,0.000000,0.000000,0.000000,0.000000,0.000000,36.530000
1.071,0.000000,0.000000,0.000000,0.000000,0.000000,0.000000,36.530000
1.082,0.000000,0.000000,0.000000,0.000000,0.000000,0.000000,36.530000
1.088,0.000000,0.000000,0.000000,0.000000,0.000000,0.000000,36.530000
1.098,0.000000,0.000000,0.000000,0.000000,0.000000,0.000000,36.530000
1.104,0.000000,0.000000,0.000000,0.000000,0.000000,0.000000,36.530000
1.115,0.000000,0.000000,0.000000,0.000000,0.000000,0.000000,36.530000
1.122,0.000000,0.000000,0.000000,0.000000,0.000000,0.000000,36.530000
1.132,0.000000,0.000000,0.000000,0.000000,0.000000,0.000000,36.530000
1.139,0.000000,0.000000,0.000000,0.000000,0.000000,0.000000,36.530000
1.148,0.000000,0.000000,0.000000,0.000000,0.000000,0.000000,36.530000
1.154,0.000000,0.000000,0.000000,0.000000,0.000000,0.000000,36.530000
1.165,0.000000,0.000000,0.000000,0.000000,0.000000,0.000000,36.530000
1.171,0.000000,0.000000,0.000000,0.000000,0.000000,0.000000,36.530000
1.182,0.000000,0.000000,0.000000,0.000000,0.000000,0.000000,36.530000
1.189,0.000000,0.000000,0.000000,0.000000,0.000000,0.000000,36.530000
1.199,0.000000,0.000000,0.000000,0.000000,0.000000,0.000000,36.530000
1.204,0.000000,0.000000,0.000000,0.000000,0.000000,0.000000,36.530000
1.215,0.000000,0.000000,0.000000,0.000000,0.000000,0.000000,36.530000
1.222,0.000000,0.000000,0.000000,0.000000,0.000000,0.000000,36.530000
1.232,0.000000,0.000000,0.000000,0.000000,0.000000,0.000000,36.530000
1.237,0.000000,0.000000,0.000000,0.000000,0.000000,0.000000,36.530000
1.248,0.000000,0.000000,0.000000,0.000000,0.000000,0.000000,36.530000
1.254,0.000000,0.000000,0.000000,0.000000,0.000000,0.000000,36.530000
1.265,0.000000,0.000000,0.000000,0.000000,0.000000,0.000000,36.530000
1.271,0.000000,0.000000,0.000000,0.000000,0.000000,0.000000,36.530000
1.282,0.000000,0.000000,0.000000,0.000000,0.000000,0.000000,36.530000
1.288,0.000000,0.000000,0.000000,0.000000,0.000000,0.000000,36.530000
1.298,0.000000,0.000000,0.000000,0.000000,0.000000,0.000000,36.530000
1.304,0.000000,0.000000,0.000000,0.000000,0.000000,0.000000,36.530000
1.315,0.000000,0.000000,0.000000,0.000000,0.000000,0.000000,36.530000
1.321,0.000000,0.000000,0.000000,0.000000,0.000000,0.000000,36.530000
1.332,0.000000,0.000000,0.000000,0.000000,0.000000,0.000000,36.530000
1.338,0.000000,0.000000,0.000000,0.000000,0.000000,0.000000,36.530000
1.348,0.000000,0.000000,0.000000,0.000000,0.000000,0.000000,36.530000
1.354,0.000000,0.000000,0.000000,0.000000,0.000000,0.000000,36.530000
1.365,0.000000,0.000000,0.000000,0.000000,0.000000,0.000000,36.530000
1.372,0.000000,0.000000,0.000000,0.000000,0.000000,0.000000,36.530000
1.382,0.000000,0.000000,0.000000,0.000000,0.000000,0.000000,36.530000
1.389,0.000000,0.000000,0.000000,0.000000,0.000000,0.000000,36.530000
1.398,0.000000,0.000000,0.000000,0.000000,0.000000,0.000000,36.530000
1.404,0.000000,0.000000,0.000000,0.000000,0.000000,0.000000,36.530000
1.415,0.000000,0.000000,0.000000,0.000000,0.000000,0.000000,36.530000
1.427,0.000000,0.000000,0.000000,0.000000,0.000000,0.000000,36.530000
1.434,0.000000,0.000000,0.000000,0.000000,0.000000,0.000000,36.530000
1.438,0.000000,0.000000,0.000000,0.000000,0.000000,0.000000,36.530000
1.448,0.000000,0.000000,0.000000,0.000000,0.000000,0.000000,36.530000
1.454,0.000000,0.000000,0.000000,0.000000,0.000000,0.000000,36.530000
1.465,0.000000,0.000000,0.000000,0.000000,0.000000,0.000000,36.530000
1.471,0.000000,0.000000,0.000000,0.000000,0.000000,0.000000,36.530000
1.482,0.000000,0.000000,0.000000,0.000000,0.000000,0.000000,36.530000
1.488,0.000000,0.000000,0.000000,0.000000,0.000000,0.000000,36.530000
1.498,0.000000,0.000000,0.000000,0.000000,0.000000,0.000000,36.530000
1.504,0.000000,0.000000,0.000000,0.000000,0.000000,0.000000,36.530000
1.515,0.000000,0.000000,0.000000,0.000000,0.000000,0.000000,36.530000
1.522,0.000000,0.000000,0.000000,0.000000,0.000000,0.000000,36.530000
1.532,0.000000,0.000000,0.000000,0.000000,0.000000,0.000000,36.530000
1.538,0.000000,0.000000,0.000000,0.000000,0.000000,0.000000,36.530000
1.548,0.000000,0.000000,0.000000,0.000000,0.000000,0.000000,36.530000
1.554,0.000000,0.000000,0.000000,0.000000,0.000000,0.000000,36.530000
1.565,0.000000,0.000000,0.000000,0.000000,0.000000,0.000000,36.530000
1.572,0.000000,0.000000,0.000000,0.000000,0.000000,0.000000,36.530000
1.582,0.000000,0.000000,0.000000,0.000000,0.000000,0.000000,36.530000
1.588,0.000000,0.000000,0.000000,0.000000,0.000000,0.000000,36.530000
1.598,0.000000,0.000000,0.000000,0.000000,0.000000,0.000000,36.530000
1.604,0.000000,0.000000,0.000000,0.000000,0.000000,0.000000,36.530000
1.615,0.000000,0.000000,0.000000,0.000000,0.000000,0.000000,36.530000
1.622,0.000000,0.000000,0.000000,0.000000,0.000000,0.000000,36.530000
1.632,0.000000,0.000000,0.000000,0.000000,0.000000,0.000000,36.530000
1.639,0.000000,0.000000,0.000000,0.000000,0.000000,0.000000,36.530000
1.648,0.000000,0.000000,0.000000,0.000000,0.000000,0.000000,36.530000
1.654,0.000000,0.000000,0.000000,0.000000,0.000000,0.000000,36.530000
1.665,0.000000,0.000000,0.000000,0.000000,0.000000,0.000000,36.530000
1.671,0.000000,0.000000,0.000000,0.000000,0.000000,0.000000,36.530000
1.682,0.000000,0.000000,0.000000,0.000000,0.000000,0.000000,36.530000
1.688,0.000000,0.000000,0.000000,0.000000,0.000000,0.000000,36.530000
1.698,0.000000,0.000000,0.000000,0.000000,0.000000,0.000000,36.530000
1.704,0.000000,0.000000,0.000000,0.000000,0.000000,0.000000,36.530000
1.715,0.000000,0.000000,0.000000,0.000000,0.000000,0.000000,36.530000
1.722,0.000000,0.000000,0.000000,0.000000,0.000000,0.000000,36.530000
1.732,0.000000,0.000000,0.000000,0.000000,0.000000,0.000000,36.530000
1.738,0.000000,0.000000,0.000000,0.000000,0.000000,0.000000,36.530000
1.748,0.000000,0.000000,0.000000,0.000000,0.000000,0.000000,36.530000
1.754,0.000000,0.000000,0.000000,0.000000,0.000000,0.000000,36.530000
1.765,0.000000,0.000000,0.000000,0.000000,0.000000,0.000000,36.530000
1.772,0.000000,0.000000,0.000000,0.000000,0.000000,0.000000,36.530000
1.782,0.000000,0.000000,0.000000,0.000000,0.000000,0.000000,36.530000
1.789,0.000000,0.000000,0.000000,0.000000,0.000000,0.000000,36.530000
1.798,0.000000,0.000000,0.000000,0.000000,0.000000,0.000000,36.530000
1.804,0.000000,0.000000,0.000000,0.000000,0.000000,0.000000,36.530000
1.815,0.000000,0.000000,0.000000,0.000000,0.000000,0.000000,36.530000
1.822,0.000000,0.000000,0.000000,0.000000,0.000000,0.000000,36.530000
1.832,0.000000,0.000000,0.000000,0.000000,0.000000,0.000000,36.530000
1.839,0.000000,0.000000,0.000000,0.000000,0.000000,0.000000,36.530000
1.848,0.000000,0.000000,0.000000,0.000000,0.000000,0.000000,36.530000
1.854,0.000000,0.000000,0.000000,0.000000,0.000000,0.000000,36.530000
1.865,0.000000,0.000000,0.000000,0.000000,0.000000,0.000000,36.530000
1.871,0.000000,0.000000,0.000000,0.000000,0.000000,0.000000,36.530000
1.882,0.000000,0.000000,0.000000,0.000000,0.000000,0.000000,36.530000
1.888,0.000000,0.000000,0.000000,0.000000,0.000000,0.000000,36.530000
1.898,0.000000,0.000000,0.000000,0.000000,0.000000,0.000000,36.530000
1.904,0.000000,0.000000,0.000000,0.000000,0.000000,0.000000,36.530000
1.915,0.000000,0.000000,0.000000,0.000000,0.000000,0.000000,36.530000
1.922,0.000000,0.000000,0.000000,0.000000,0.000000,0.000000,36.530000
1.932,0.000000,0.000000,0.000000,0.000000,0.000000,0.000000,36.530000
1.938,0.000000,0.000000,0.000000,0.000000,0.000000,0.000000,36.530000
1.948,0.000000,0.000000,0.000000,0.000000,0.000000,0.000000,36.530000
1.954,0.000000,0.000000,0.000000,0.000000,0.000000,0.000000,36.530000
1.965,0.000000,0.000000,0.000000,0.000000,0.000000,0.000000,36.530000
1.972,0.000000,0.000000,0.000000,0.000000,0.000000,0.000000,36.530000
1.982,0.000000,0.000000,0.000000,0.000000,0.000000,0.000000,36.530000
1.989,0.000000,0.000000,0.000000,0.000000,0.000000,0.000000,36.530000
1.998,0.000000,0.000000,0.000000,0.000000,0.000000,0.000000,36.530000
2.004,0.000000,0.000000,0.000000,0.000000,0.000000,0.000000,36.530000
2.015,0.000000,0.000000,0.000000,0.000000,0.000000,0.000000,36.530000
2.021,0.000000,0.000000,0.000000,0.000000,0.000000,0.000000,36.530000
2.032,0.000000,0.000000,0.000000,0.000000,0.000000,0.000000,36.530000
2.038,0.000000,0.000000,0.000000,0.000000,0.000000,0.000000,36.530000
2.048,0.000000,0.000000,0.000000,0.000000,0.000000,0.000000,36.530000
2.054,0.000000,0.000000,0.000000,0.000000,0.000000,0.000000,36.530000
2.065,0.000000,0.000000,0.000000,0.000000,0.000000,0.000000,36.530000
2.071,0.000000,0.000000,0.000000,0.000000,0.000000,0.000000,36.530000
2.082,0.000000,0.000000,0.000000,0.000000,0.000000,0.000000,36.530000
2.088,0.000000,0.000000,0.000000,0.000000,0.000000,0.000000,36.530000
2.098,0.000000,0.000000,0.000000,0.000000,0.000000,0.000000,36.530000
2.104,0.000000,0.000000,0.000000,0.000000,0.000000,0.000000,36.530000
2.115,0.000000,0.000000,0.000000,0.000000,0.000000,0.000000,36.530000
2.124,0.000000,0.000000,0.000000,0.000000,0.000000,0.000000,36.530000
2.132,0.000000,0.000000,0.000000,0.000000,0.000000,0.000000,36.530000
2.138,0.000000,0.000000,0.000000,0.000000,0.000000,0.000000,36.530000
2.148,0.000000,0.000000,0.000000,0.000000,0.000000,0.000000,36.530000
2.154,0.000000,0.000000,0.000000,0.000000,0.000000,0.000000,36.530000
2.165,0.000000,0.000000,0.000000,0.000000,0.000000,0.000000,36.530000
2.172,0.000000,0.000000,0.000000,0.000000,0.000000,0.000000,36.530000
2.182,0.000000,0.000000,0.000000,0.000000,0.000000,0.000000,36.530000
2.188,0.000000,0.000000,0.000000,0.000000,0.000000,0.000000,36.530000
2.198,0.000000,0.000000,0.000000,0.000000,0.000000,0.000000,36.530000
2.204,0.000000,0.000000,0.000000,0.000000,0.000000,0.000000,36.530000
2.215,0.000000,0.000000,0.000000,0.000000,0.000000,0.000000,36.530000
2.222,0.000000,0.000000,0.000000,0.000000,0.000000,0.000000,36.530000
2.232,0.000000,0.000000,0.000000,0.000000,0.000000,0.000000,36.530000
2.238,0.000000,0.000000,0.000000,0.000000,0.000000,0.000000,36.530000
2.248,0.000000,0.000000,0.000000,0.000000,0.000000,0.000000,36.530000
2.254,0.000000,0.000000,0.000000,0.000000,0.000000,0.000000,36.530000
2.265,0.000000,0.000000,0.000000,0.000000,0.000000,0.000000,36.530000
2.271,0.000000,0.000000,0.000000,0.000000,0.000000,0.000000,36.530000
2.283,0.000000,0.000000,0.000000,0.000000,0.000000,0.000000,36.530000
2.288,0.000000,0.000000,0.000000,0.000000,0.000000,0.000000,36.530000
2.298,0.000000,0.000000,0.000000,0.000000,0.000000,0.000000,36.530000
2.304,0.000000,0.000000,0.000000,0.000000,0.000000,0.000000,36.530000
2.315,0.000000,0.000000,0.000000,0.000000,0.000000,0.000000,36.530000
2.322,0.000000,0.000000,0.000000,0.000000,0.000000,0.000000,36.530000
2.331,0.000000,0.000000,0.000000,0.000000,0.000000,0.000000,36.530000
2.339,0.000000,0.000000,0.000000,0.000000,0.000000,0.000000,36.530000
2.348,0.000000,0.000000,0.000000,0.000000,0.000000,0.000000,36.530000
2.354,0.000000,0.000000,0.000000,0.000000,0.000000,0.000000,36.530000
2.365,0.000000,0.000000,0.000000,0.000000,0.000000,0.000000,36.530000
2.371,0.000000,0.000000,0.000000,0.000000,0.000000,0.000000,36.530000
2.382,0.000000,0.000000,0.000000,0.000000,0.000000,0.000000,36.530000
2.388,0.000000,0.000000,0.000000,0.000000,0.000000,0.000000,36.530000
2.398,0.000000,0.000000,0.000000,0.000000,0.000000,0.000000,36.530000
2.404,0.000000,0.000000,0.000000,0.000000,0.000000,0.000000,36.530000
2.415,0.000000,0.000000,0.000000,0.000000,0.000000,0.000000,36.530000
2.422,0.000000,0.000000,0.000000,0.000000,0.000000,0.000000,36.530000
2.432,0.000000,0.000000,0.000000,0.000000,0.000000,0.000000,36.530000
2.437,0.000000,0.000000,0.000000,0.000000,0.000000,0.000000,36.530000
2.448,0.000000,0.000000,0.000000,0.000000,0.000000,0.000000,36.530000
2.454,0.000000,0.000000,0.000000,0.000000,0.000000,0.000000,36.530000
2.465,0.000000,0.000000,0.000000,0.000000,0.000000,0.000000,36.530000
2.471,0.000000,0.000000,0.000000,0.000000,0.000000,0.000000,36.530000
2.482,0.000000,0.000000,0.000000,0.000000,0.000000,0.000000,36.530000
2.489,0.000000,0.000000,0.000000,0.000000,0.000000,0.000000,36.530000
2.498,0.000000,0.000000,0.000000,0.000000,0.000000,0.000000,36.530000
2.504,0.000000,0.000000,0.000000,0.000000,0.000000,0.000000,36.530000
2.515,0.000000,0.000000,0.000000,0.000000,0.000000,0.000000,36.530000
2.522,0.000000,0.000000,0.000000,0.000000,0.000000,0.000000,36.530000
2.532,0.000000,0.000000,0.000000,0.000000,0.000000,0.000000,36.530000
2.538,0.000000,0.000000,0.000000,0.000000,0.000000,0.000000,36.530000
2.548,0.000000,0.000000,0.000000,0.000000,0.000000,0.000000,36.530000
2.554,0.000000,0.000000,0.000000,0.000000,0.000000,0.000000,36.530000
2.565,0.000000,0.000000,0.000000,0.000000,0.000000,0.000000,36.530000
2.572,0.000000,0.000000,0.000000,0.000000,0.000000,0.000000,36.530000
2.582,0.000000,0.000000,0.000000,0.000000,0.000000,0.000000,36.530000
2.588,0.000000,0.000000,0.000000,0.000000,0.000000,0.000000,36.530000
2.598,0.000000,0.000000,0.000000,0.000000,0.000000,0.000000,36.530000
2.604,0.000000,0.000000,0.000000,0.000000,0.000000,0.000000,36.530000
2.615,0.000000,0.000000,0.000000,0.000000,0.000000,0.000000,36.530000
2.622,0.000000,0.000000,0.000000,0.000000,0.000000,0.000000,36.530000
2.632,0.000000,0.000000,0.000000,0.000000,0.000000,0.000000,36.530000
2.638,0.000000,0.000000,0.000000,0.000000,0.000000,0.000000,36.530000
2.648,0.000000,0.000000,0.000000,0.000000,0.000000,0.000000,36.530000
2.654,0.000000,0.000000,0.000000,0.000000,0.000000,0.000000,36.530000
2.665,0.000000,0.000000,0.000000,0.000000,0.000000,0.000000,36.530000
2.672,0.000000,0.000000,0.000000,0.000000,0.000000,0.000000,36.530000
2.682,0.000000,0.000000,0.000000,0.000000,0.000000,0.000000,36.530000
2.688,0.000000,0.000000,0.000000,0.000000,0.000000,0.000000,36.530000
2.698,0.000000,0.000000,0.000000,0.000000,0.000000,0.000000,36.530000
2.704,0.000000,0.000000,0.000000,0.000000,0.000000,0.000000,36.530000
2.715,0.000000,0.000000,0.000000,0.000000,0.000000,0.000000,36.530000
2.722,0.000000,0.000000,0.000000,0.000000,0.000000,0.000000,36.530000
2.731,0.000000,0.000000,0.000000,0.000000,0.000000,0.000000,36.530000
2.739,0.000000,0.000000,0.000000,0.000000,0.000000,0.000000,36.530000
2.748,0.000000,0.000000,0.000000,0.000000,0.000000,0.000000,36.530000
2.754,0.000000,0.000000,0.000000,0.000000,0.000000,0.000000,36.530000
2.765,0.000000,0.000000,0.000000,0.000000,0.000000,0.000000,36.530000
2.772,0.000000,0.000000,0.000000,0.000000,0.000000,0.000000,36.530000
2.782,0.000000,0.000000,0.000000,0.000000,0.000000,0.000000,36.530000
2.788,0.000000,0.000000,0.000000,0.000000,0.000000,0.000000,36.530000
2.798,0.000000,0.000000,0.000000,0.000000,0.000000,0.000000,36.530000
2.804,0.000000,0.000000,0.000000,0.000000,0.000000,0.000000,36.530000
2.815,0.000000,0.000000,0.000000,0.000000,0.000000,0.000000,36.530000
2.822,0.000000,0.000000,0.000000,0.000000,0.000000,0.000000,36.530000
2.831,0.000000,0.000000,0.000000,0.000000,0.000000,0.000000,36.530000
2.838,0.000000,0.000000,0.000000,0.000000,0.000000,0.000000,36.530000
2.848,0.000000,0.000000,0.000000,0.000000,0.000000,0.000000,36.530000
2.854,0.000000,0.000000,0.000000,0.000000,0.000000,0.000000,36.530000
2.865,0.000000,0.000000,0.000000,0.000000,0.000000,0.000000,36.530000
2.871,0.000000,0.000000,0.000000,0.000000,0.000000,0.000000,36.530000
2.882,0.000000,0.000000,0.000000,0.000000,0.000000,0.000000,36.530000
2.888,0.000000,0.000000,0.000000,0.000000,0.000000,0.000000,36.530000
2.898,0.000000,0.000000,0.000000,0.000000,0.000000,0.000000,36.530000
2.904,0.000000,0.000000,0.000000,0.000000,0.000000,0.000000,36.530000
2.915,0.000000,0.000000,0.000000,0.000000,0.000000,0.000000,36.530000
2.924,0.000000,0.000000,0.000000,0.000000,0.000000,0.000000,36.530000
2.932,0.000000,0.000000,0.000000,0.000000,0.000000,0.000000,36.530000
2.939,0.000000,0.000000,0.000000,0.000000,0.000000,0.000000,36.530000
2.948,0.000000,0.000000,0.000000,0.000000,0.000000,0.000000,36.530000
2.954,0.000000,0.000000,0.000000,0.000000,0.000000,0.000000,36.530000
2.965,0.000000,0.000000,0.000000,0.000000,0.000000,0.000000,36.530000
2.972,0.000000,0.000000,0.000000,0.000000,0.000000,0.000000,36.530000
2.982,0.000000,0.000000,0.000000,0.000000,0.000000,0.000000,36.530000
2.988,0.000000,0.000000,0.000000,0.000000,0.000000,0.000000,36.530000
2.998,0.000000,0.000000,0.000000,0.000000,0.000000,0.000000,36.530000
3.004,0.000000,0.000000,0.000000,0.000000,0.000000,0.000000,36.530000
3.015,0.000000,0.000000,0.000000,0.000000,0.000000,0.000000,36.530000
3.022,0.000000,0.000000,0.000000,0.000000,0.000000,0.000000,36.530000
3.032,0.000000,0.000000,0.000000,0.000000,0.000000,0.000000,36.530000
3.038,0.000000,0.000000,0.000000,0.000000,0.000000,0.000000,36.530000
3.048,0.000000,0.000000,0.000000,0.000000,0.000000,0.000000,36.530000
3.054,0.000000,0.000000,0.000000,0.000000,0.000000,0.000000,36.530000
3.065,0.000000,0.000000,0.000000,0.000000,0.000000,0.000000,36.530000
3.072,0.000000,0.000000,0.000000,0.000000,0.000000,0.000000,36.530000
3.082,0.000000,0.000000,0.000000,0.000000,0.000000,0.000000,36.530000
3.088,0.000000,0.000000,0.000000,0.000000,0.000000,0.000000,36.530000
3.098,0.000000,0.000000,0.000000,0.000000,0.000000,0.000000,36.530000
3.104,0.000000,0.000000,0.000000,0.000000,0.000000,0.000000,36.530000
3.115,0.000000,0.000000,0.000000,0.000000,0.000000,0.000000,36.530000
3.124,0.000000,0.000000,0.000000,0.000000,0.000000,0.000000,36.530000
3.131,0.000000,0.000000,0.000000,0.000000,0.000000,0.000000,36.530000
3.138,0.000000,0.000000,0.000000,0.000000,0.000000,0.000000,36.530000
3.148,0.000000,0.000000,0.000000,0.000000,0.000000,0.000000,36.530000
3.154,0.000000,0.000000,0.000000,0.000000,0.000000,0.000000,36.530000
3.165,0.000000,0.000000,0.000000,0.000000,0.000000,0.000000,36.530000
3.172,0.000000,0.000000,0.000000,0.000000,0.000000,0.000000,36.530000
3.182,0.000000,0.000000,0.000000,0.000000,0.000000,0.000000,36.530000
3.188,0.000000,0.000000,0.000000,0.000000,0.000000,0.000000,36.530000
3.198,0.000000,0.000000,0.000000,0.000000,0.000000,0.000000,36.530000
3.204,0.000000,0.000000,0.000000,0.000000,0.000000,0.000000,36.530000
3.215,0.000000,0.000000,0.000000,0.000000,0.000000,0.000000,36.530000
3.221,0.000000,0.000000,0.000000,0.000000,0.000000,0.000000,36.530000
3.231,0.000000,0.000000,0.000000,0.000000,0.000000,0.000000,36.530000
3.237,0.000000,0.000000,0.000000,0.000000,0.000000,0.000000,36.530000
3.248,0.000000,0.000000,0.000000,0.000000,0.000000,0.000000,36.530000
3.254,0.000000,0.000000,0.000000,0.000000,0.000000,0.000000,36.530000
3.265,0.000000,0.000000,0.000000,0.000000,0.000000,0.000000,36.530000
3.272,0.000000,0.000000,0.000000,0.000000,0.000000,0.000000,36.530000
3.281,0.000000,0.000000,0.000000,0.000000,0.000000,0.000000,36.530000
3.288,0.000000,0.000000,0.000000,0.000000,0.000000,0.000000,36.530000
3.298,0.000000,0.000000,0.000000,0.000000,0.000000,0.000000,36.530000
3.304,0.000000,0.000000,0.000000,0.000000,0.000000,0.000000,36.530000
3.315,0.000000,0.000000,0.000000,0.000000,0.000000,0.000000,36.530000
3.322,0.000000,0.000000,0.000000,0.000000,0.000000,0.000000,36.530000
3.332,0.000000,0.000000,0.000000,0.000000,0.000000,0.000000,36.530000
3.339,0.000000,0.000000,0.000000,0.000000,0.000000,0.000000,36.530000
3.348,0.000000,0.000000,0.000000,0.000000,0.000000,0.000000,36.530000
3.354,0.000000,0.000000,0.000000,0.000000,0.000000,0.000000,36.530000
3.365,0.000000,0.000000,0.000000,0.000000,0.000000,0.000000,36.530000
3.372,0.000000,0.000000,0.000000,0.000000,0.000000,0.000000,36.530000
3.382,0.000000,0.000000,0.000000,0.000000,0.000000,0.000000,36.530000
3.388,0.000000,0.000000,0.000000,0.000000,0.000000,0.000000,36.530000
3.398,0.000000,0.000000,0.000000,0.000000,0.000000,0.000000,36.530000
3.404,0.000000,0.000000,0.000000,0.000000,0.000000,0.000000,36.530000
3.415,0.000000,0.000000,0.000000,0.000000,0.000000,0.000000,36.530000
3.424,0.000000,0.000000,0.000000,0.000000,0.000000,0.000000,36.530000
3.431,0.000000,0.000000,0.000000,0.000000,0.000000,0.000000,36.530000
3.438,0.000000,0.000000,0.000000,0.000000,0.000000,0.000000,36.530000
3.448,0.000000,0.000000,0.000000,0.000000,0.000000,0.000000,36.530000
3.454,0.000000,0.000000,0.000000,0.000000,0.000000,0.000000,36.530000
3.465,0.000000,0.000000,0.000000,0.000000,0.000000,0.000000,36.530000
3.472,0.000000,0.000000,0.000000,0.000000,0.000000,0.000000,36.530000
3.482,0.000000,0.000000,0.000000,0.000000,0.000000,0.000000,36.530000
3.488,0.000000,0.000000,0.000000,0.000000,0.000000,0.000000,36.530000
3.498,0.000000,0.000000,0.000000,0.000000,0.000000,0.000000,36.530000
3.504,0.000000,0.000000,0.000000,0.000000,0.000000,0.000000,36.530000
3.515,0.000000,0.000000,0.000000,0.000000,0.000000,0.000000,36.530000
3.522,0.000000,0.000000,0.000000,0.000000,0.000000,0.000000,36.530000
3.532,0.000000,0.000000,0.000000,0.000000,0.000000,0.000000,36.530000
3.539,0.000000,0.000000,0.000000,0.000000,0.000000,0.000000,36.530000
3.548,0.000000,0.000000,0.000000,0.000000,0.000000,0.000000,36.530000
3.554,0.000000,0.000000,0.000000,0.000000,0.000000,0.000000,36.530000
3.565,0.000000,0.000000,0.000000,0.000000,0.000000,0.000000,36.530000
3.572,0.000000,0.000000,0.000000,0.000000,0.000000,0.000000,36.530000
3.581,0.000000,0.000000,0.000000,0.000000,0.000000,0.000000,36.530000
3.588,0.000000,0.000000,0.000000,0.000000,0.000000,0.000000,36.530000
3.598,0.000000,0.000000,0.000000,0.000000,0.000000,0.000000,36.530000
3.604,0.000000,0.000000,0.000000,0.000000,0.000000,0.000000,36.530000
3.615,0.000000,0.000000,0.000000,0.000000,0.000000,0.000000,36.530000
3.621,0.000000,0.000000,0.000000,0.000000,0.000000,0.000000,36.530000
3.632,0.000000,0.000000,0.000000,0.000000,0.000000,0.000000,36.530000
3.639,0.000000,0.000000,0.000000,0.000000,0.000000,0.000000,36.530000
3.648,0.000000,0.000000,0.000000,0.000000,0.000000,0.000000,36.530000
3.654,0.000000,0.000000,0.000000,0.000000,0.000000,0.000000,36.530000
3.665,0.000000,0.000000,0.000000,0.000000,0.000000,0.000000,36.530000
3.672,0.000000,0.000000,0.000000,0.000000,0.000000,0.000000,36.530000
3.682,0.000000,0.000000,0.000000,0.000000,0.000000,0.000000,36.530000
3.689,0.000000,0.000000,0.000000,0.000000,0.000000,0.000000,36.530000
3.698,0.000000,0.000000,0.000000,0.000000,0.000000,0.000000,36.530000
3.704,0.000000,0.000000,0.000000,0.000000,0.000000,0.000000,36.530000
3.715,0.000000,0.000000,0.000000,0.000000,0.000000,0.000000,36.530000
3.724,0.000000,0.000000,0.000000,0.000000,0.000000,0.000000,36.530000
3.732,0.000000,0.000000,0.000000,0.000000,0.000000,0.000000,36.530000
3.739,0.000000,0.000000,0.000000,0.000000,0.000000,0.000000,36.530000
3.748,0.000000,0.000000,0.000000,0.000000,0.000000,0.000000,36.530000
3.754,0.000000,0.000000,0.000000,0.000000,0.000000,0.000000,36.530000
3.765,0.000000,0.000000,0.000000,0.000000,0.000000,0.000000,36.530000
3.772,0.000000,0.000000,0.000000,0.000000,0.000000,0.000000,36.530000
3.782,0.000000,0.000000,0.000000,0.000000,0.000000,0.000000,36.530000
3.789,0.000000,0.000000,0.000000,0.000000,0.000000,0.000000,36.530000
3.798,0.000000,0.000000,0.000000,0.000000,0.000000,0.000000,36.530000
3.804,0.000000,0.000000,0.000000,0.000000,0.000000,0.000000,36.530000
3.816,0.000000,0.000000,0.000000,0.000000,0.000000,0.000000,36.530000
3.820,0.000000,0.000000,0.000000,0.000000,0.000000,0.000000,36.530000
3.831,0.000000,0.000000,0.000000,0.000000,0.000000,0.000000,36.530000
3.837,0.000000,0.000000,0.000000,0.000000,0.000000,0.000000,36.530000
3.848,0.000000,0.000000,0.000000,0.000000,0.000000,0.000000,36.530000
3.854,0.000000,0.000000,0.000000,0.000000,0.000000,0.000000,36.530000
3.865,0.000000,0.000000,0.000000,0.000000,0.000000,0.000000,36.530000
3.874,0.000000,0.000000,0.000000,0.000000,0.000000,0.000000,36.530000
3.881,0.000000,0.000000,0.000000,0.000000,0.000000,0.000000,36.530000
3.888,0.000000,0.000000,0.000000,0.000000,0.000000,0.000000,36.530000
3.898,0.000000,0.000000,0.000000,0.000000,0.000000,0.000000,36.530000
3.904,0.000000,0.000000,0.000000,0.000000,0.000000,0.000000,36.530000
3.915,0.000000,0.000000,0.000000,0.000000,0.000000,0.000000,36.530000
3.923,0.000000,0.000000,0.000000,0.000000,0.000000,0.000000,36.530000
3.932,0.000000,0.000000,0.000000,0.000000,0.000000,0.000000,36.530000
3.938,0.000000,0.000000,0.000000,0.000000,0.000000,0.000000,36.530000
3.948,0.000000,0.000000,0.000000,0.000000,0.000000,0.000000,36.530000
3.954,0.000000,0.000000,0.000000,0.000000,0.000000,0.000000,36.530000
3.965,0.000000,0.000000,0.000000,0.000000,0.000000,0.000000,36.530000
3.972,0.000000,0.000000,0.000000,0.000000,0.000000,0.000000,36.530000
3.981,0.000000,0.000000,0.000000,0.000000,0.000000,0.000000,36.530000
3.989,0.000000,0.000000,0.000000,0.000000,0.000000,0.000000,36.530000
3.998,0.000000,0.000000,0.000000,0.000000,0.000000,0.000000,36.530000
4.004,0.000000,0.000000,0.000000,0.000000,0.000000,0.000000,36.530000
4.015,0.000000,0.000000,0.000000,0.000000,0.000000,0.000000,36.530000
4.022,0.000000,0.000000,0.000000,0.000000,0.000000,0.000000,36.530000
4.032,0.000000,0.000000,0.000000,0.000000,0.000000,0.000000,36.530000
4.038,0.000000,0.000000,0.000000,0.000000,0.000000,0.000000,36.530000
4.048,0.000000,0.000000,0.000000,0.000000,0.000000,0.000000,36.530000
4.054,0.000000,0.000000,0.000000,0.000000,0.000000,0.000000,36.530000
4.065,0.000000,0.000000,0.000000,0.000000,0.000000,0.000000,36.530000
4.070,0.000000,0.000000,0.000000,0.000000,0.000000,0.000000,36.530000
4.082,0.000000,0.000000,0.000000,0.000000,0.000000,0.000000,36.530000
4.088,0.000000,0.000000,0.000000,0.000000,0.000000,0.000000,36.530000
4.098,0.000000,0.000000,0.000000,0.000000,0.000000,0.000000,36.530000
4.104,0.000000,0.000000,0.000000,0.000000,0.000000,0.000000,36.530000
4.115,0.000000,0.000000,0.000000,0.000000,0.000000,0.000000,36.530000
4.123,0.000000,0.000000,0.000000,0.000000,0.000000,0.000000,36.530000
4.131,0.000000,0.000000,0.000000,0.000000,0.000000,0.000000,36.530000
4.138,0.000000,0.000000,0.000000,0.000000,0.000000,0.000000,36.530000
4.148,0.000000,0.000000,0.000000,0.000000,0.000000,0.000000,36.530000
4.154,0.000000,0.000000,0.000000,0.000000,0.000000,0.000000,36.530000
4.165,0.000000,0.000000,0.000000,0.000000,0.000000,0.000000,36.530000
4.172,0.000000,0.000000,0.000000,0.000000,0.000000,0.000000,36.530000
4.182,0.000000,0.000000,0.000000,0.000000,0.000000,0.000000,36.530000
4.189,0.000000,0.000000,0.000000,0.000000,0.000000,0.000000,36.530000
4.198,0.000000,0.000000,0.000000,0.000000,0.000000,0.000000,36.530000
4.204,0.000000,0.000000,0.000000,0.000000,0.000000,0.000000,36.530000
4.215,0.000000,0.000000,0.000000,0.000000,0.000000,0.000000,36.530000
4.224,0.000000,0.000000,0.000000,0.000000,0.000000,0.000000,36.530000
4.231,0.000000,0.000000,0.000000,0.000000,0.000000,0.000000,36.530000
4.237,0.000000,0.000000,0.000000,0.000000,0.000000,0.000000,36.530000
4.248,0.000000,0.000000,0.000000,0.000000,0.000000,0.000000,36.530000
4.254,0.000000,0.000000,0.000000,0.000000,0.000000,0.000000,36.530000
4.265,0.000000,0.000000,0.000000,0.000000,0.000000,0.000000,36.530000
4.272,0.000000,0.000000,0.000000,0.000000,0.000000,0.000000,36.530000
4.282,0.000000,0.000000,0.000000,0.000000,0.000000,0.000000,36.530000
4.288,0.000000,0.000000,0.000000,0.000000,0.000000,0.000000,36.530000
4.298,0.000000,0.000000,0.000000,0.000000,0.000000,0.000000,36.530000
4.304,0.000000,0.000000,0.000000,0.000000,0.000000,0.000000,36.530000
4.315,0.000000,0.000000,0.000000,0.000000,0.000000,0.000000,36.530000
4.323,0.000000,0.000000,0.000000,0.000000,0.000000,0.000000,36.530000
4.331,0.000000,0.000000,0.000000,0.000000,0.000000,0.000000,36.530000
4.339,0.000000,0.000000,0.000000,0.000000,0.000000,0.000000,36.530000
4.348,0.000000,0.000000,0.000000,0.000000,0.000000,0.000000,36.530000
4.354,0.000000,0.000000,0.000000,0.000000,0.000000,0.000000,36.530000
4.365,0.000000,0.000000,0.000000,0.000000,0.000000,0.000000,36.530000
4.372,0.000000,0.000000,0.000000,0.000000,0.000000,0.000000,36.530000
4.381,0.000000,0.000000,0.000000,0.000000,0.000000,0.000000,36.530000
4.389,0.000000,0.000000,0.000000,0.000000,0.000000,0.000000,36.530000
4.398,0.000000,0.000000,0.000000,0.000000,0.000000,0.000000,36.530000
4.404,0.000000,0.000000,0.000000,0.000000,0.000000,0.000000,36.530000
4.415,0.000000,0.000000,0.000000,0.000000,0.000000,0.000000,36.530000
4.424,0.000000,0.000000,0.000000,0.000000,0.000000,0.000000,36.530000
4.432,0.000000,0.000000,0.000000,0.000000,0.000000,0.000000,36.530000
4.438,0.000000,0.000000,0.000000,0.000000,0.000000,0.000000,36.530000
4.448,0.000000,0.000000,0.000000,0.000000,0.000000,0.000000,36.530000
4.454,0.000000,0.000000,0.000000,0.000000,0.000000,0.000000,36.530000
4.465,0.000000,0.000000,0.000000,0.000000,0.000000,0.000000,36.530000
4.472,0.000000,0.000000,0.000000,0.000000,0.000000,0.000000,36.530000
4.481,0.000000,0.000000,0.000000,0.000000,0.000000,0.000000,36.530000
4.488,0.000000,0.000000,0.000000,0.000000,0.000000,0.000000,36.530000
4.498,0.000000,0.000000,0.000000,0.000000,0.000000,0.000000,36.530000
4.504,0.000000,0.000000,0.000000,0.000000,0.000000,0.000000,36.530000
4.515,0.000000,0.000000,0.000000,0.000000,0.000000,0.000000,36.530000
4.522,0.000000,0.000000,0.000000,0.000000,0.000000,0.000000,36.530000
4.532,0.000000,0.000000,0.000000,0.000000,0.000000,0.000000,36.530000
4.539,0.000000,0.000000,0.000000,0.000000,0.000000,0.000000,36.530000
4.548,0.000000,0.000000,0.000000,0.000000,0.000000,0.000000,36.530000
4.554,0.000000,0.000000,0.000000,0.000000,0.000000,0.000000,36.530000
4.565,0.000000,0.000000,0.000000,0.000000,0.000000,0.000000,36.530000
4.574,0.000000,0.000000,0.000000,0.000000,0.000000,0.000000,36.530000
4.582,0.000000,0.000000,0.000000,0.000000,0.000000,0.000000,36.530000
4.589,0.000000,0.000000,0.000000,0.000000,0.000000,0.000000,36.530000
4.598,0.000000,0.000000,0.000000,0.000000,0.000000,0.000000,36.530000
4.604,0.000000,0.000000,0.000000,0.000000,0.000000,0.000000,36.530000
4.615,0.000000,0.000000,0.000000,0.000000,0.000000,0.000000,36.530000
4.623,0.000000,0.000000,0.000000,0.000000,0.000000,0.000000,36.530000
4.631,0.000000,0.000000,0.000000,0.000000,0.000000,0.000000,36.530000
4.637,0.000000,0.000000,0.000000,0.000000,0.000000,0.000000,36.530000
4.648,0.000000,0.000000,0.000000,0.000000,0.000000,0.000000,36.530000
4.654,0.000000,0.000000,0.000000,0.000000,0.000000,0.000000,36.530000
4.664,0.000000,0.000000,0.000000,0.000000,0.000000,0.000000,36.530000
4.672,0.000000,0.000000,0.000000,0.000000,0.000000,0.000000,36.530000
4.681,0.000000,0.000000,0.000000,0.000000,0.000000,0.000000,36.530000
4.689,0.000000,0.000000,0.000000,0.000000,0.000000,0.000000,36.530000
4.699,0.000000,0.000000,0.000000,0.000000,0.000000,0.000000,36.530000
4.703,0.000000,0.000000,0.000000,0.000000,0.000000,0.000000,36.530000
4.715,0.000000,0.000000,0.000000,0.000000,0.000000,0.000000,36.530000
4.724,0.000000,0.000000,0.000000,0.000000,0.000000,0.000000,36.530000
4.732,0.000000,0.000000,0.000000,0.000000,0.000000,0.000000,36.530000
4.738,0.000000,0.000000,0.000000,0.000000,0.000000,0.000000,36.530000
4.748,0.000000,0.000000,0.000000,0.000000,0.000000,0.000000,36.530000
4.754,0.000000,0.000000,0.000000,0.000000,0.000000,0.000000,36.530000
4.764,0.000000,0.000000,0.000000,0.000000,0.000000,0.000000,36.530000
4.772,0.000000,0.000000,0.000000,0.000000,0.000000,0.000000,36.530000
4.782,0.000000,0.000000,0.000000,0.000000,0.000000,0.000000,36.530000
4.788,0.000000,0.000000,0.000000,0.000000,0.000000,0.000000,36.530000
4.798,0.000000,0.000000,0.000000,0.000000,0.000000,0.000000,36.530000
4.803,0.000000,0.000000,0.000000,0.000000,0.000000,0.000000,36.530000
4.815,0.000000,0.000000,0.000000,0.000000,0.000000,0.000000,36.530000
4.822,0.000000,0.000000,0.000000,0.000000,0.000000,0.000000,36.530000
4.832,0.000000,0.000000,0.000000,0.000000,0.000000,0.000000,36.530000
4.838,0.000000,0.000000,0.000000,0.000000,0.000000,0.000000,36.530000
4.848,0.000000,0.000000,0.000000,0.000000,0.000000,0.000000,36.530000
4.854,0.000000,0.000000,0.000000,0.000000,0.000000,0.000000,36.530000
4.864,0.000000,0.000000,0.000000,0.000000,0.000000,0.000000,36.530000
4.872,0.000000,0.000000,0.000000,0.000000,0.000000,0.000000,36.530000
4.881,0.000000,0.000000,0.000000,0.000000,0.000000,0.000000,36.530000
4.889,0.000000,0.000000,0.000000,0.000000,0.000000,0.000000,36.530000
4.898,0.000000,0.000000,0.000000,0.000000,0.000000,0.000000,36.530000
4.903,0.000000,0.000000,0.000000,0.000000,0.000000,0.000000,36.530000
4.914,0.000000,0.000000,0.000000,0.000000,0.000000,0.000000,36.530000
4.924,0.000000,0.000000,0.000000,0.000000,0.000000,0.000000,36.530000
4.932,0.000000,0.000000,0.000000,0.000000,0.000000,0.000000,36.530000
4.939,0.000000,0.000000,0.000000,0.000000,0.000000,0.000000,36.530000
4.948,0.000000,0.000000,0.000000,0.000000,0.000000,0.000000,36.530000
4.953,0.000000,0.000000,0.000000,0.000000,0.000000,0.000000,36.530000
4.964,0.000000,0.000000,0.000000,0.000000,0.000000,0.000000,36.530000
4.974,0.000000,0.000000,0.000000,0.000000,0.000000,0.000000,36.530000
4.983,0.000000,0.000000,0.000000,0.000000,0.000000,0.000000,36.530000
4.988,0.000000,0.000000,0.000000,0.000000,0.000000,0.000000,36.530000
4.998,0.000000,0.000000,0.000000,0.000000,0.000000,0.000000,36.530000
5.004,0.000000,0.000000,0.000000,0.000000,0.000000,0.000000,36.530000
5.014,0.000000,0.000000,0.000000,0.000000,0.000000,0.000000,36.530000
5.022,0.000000,0.000000,0.000000,0.000000,0.000000,0.000000,36.530000
5.032,0.000000,0.000000,0.000000,0.000000,0.000000,0.000000,36.530000
5.037,0.000000,0.000000,0.000000,0.000000,0.000000,0.000000,36.530000
5.048,0.000000,0.000000,0.000000,0.000000,0.000000,0.000000,36.530000
5.054,0.000000,0.000000,0.000000,0.000000,0.000000,0.000000,36.530000
5.064,0.000000,0.000000,0.000000,0.000000,0.000000,0.000000,36.530000
5.074,0.000000,0.000000,0.000000,0.000000,0.000000,0.000000,36.530000
5.082,0.000000,0.000000,0.000000,0.000000,0.000000,0.000000,36.530000
5.088,0.000000,0.000000,0.000000,0.000000,0.000000,0.000000,36.530000
5.098,0.000000,0.000000,0.000000,0.000000,0.000000,0.000000,36.530000
5.103,0.000000,0.000000,0.000000,0.000000,0.000000,0.000000,36.530000
5.114,0.000000,0.000000,0.000000,0.000000,0.000000,0.000000,36.530000
5.122,0.000000,0.000000,0.000000,0.000000,0.000000,0.000000,36.530000
5.132,0.000000,0.000000,0.000000,0.000000,0.000000,0.000000,36.530000
5.138,0.000000,0.000000,0.000000,0.000000,0.000000,0.000000,36.530000
5.148,0.000000,0.000000,0.000000,0.000000,0.000000,0.000000,36.530000
5.154,0.000000,0.000000,0.000000,0.000000,0.000000,0.000000,36.530000
5.164,0.000000,0.000000,0.000000,0.000000,0.000000,0.000000,36.530000
5.174,0.000000,0.000000,0.000000,0.000000,0.000000,0.000000,36.530000
5.182,0.000000,0.000000,0.000000,0.000000,0.000000,0.000000,36.530000
5.189,0.000000,0.000000,0.000000,0.000000,0.000000,0.000000,36.530000
5.198,0.000000,0.000000,0.000000,0.000000,0.000000,0.000000,36.530000
5.203,0.000000,0.000000,0.000000,0.000000,0.000000,0.000000,36.530000
5.214,0.000000,0.000000,0.000000,0.000000,0.000000,0.000000,36.530000
5.224,0.000000,0.000000,0.000000,0.000000,0.000000,0.000000,36.530000
5.232,0.000000,0.000000,0.000000,0.000000,0.000000,0.000000,36.530000
5.238,0.000000,0.000000,0.000000,0.000000,0.000000,0.000000,36.530000
5.248,0.000000,0.000000,0.000000,0.000000,0.000000,0.000000,36.530000
5.253,0.000000,0.000000,0.000000,0.000000,0.000000,0.000000,36.530000
5.264,0.000000,0.000000,0.000000,0.000000,0.000000,0.000000,36.530000
5.272,0.000000,0.000000,0.000000,0.000000,0.000000,0.000000,36.530000
5.282,0.000000,0.000000,0.000000,0.000000,0.000000,0.000000,36.530000
5.290,0.000000,0.000000,0.000000,0.000000,0.000000,0.000000,36.530000
5.298,0.000000,0.000000,0.000000,0.000000,0.000000,0.000000,36.530000
5.303,0.000000,0.000000,0.000000,0.000000,0.000000,0.000000,36.530000
5.314,0.000000,0.000000,0.000000,0.000000,0.000000,0.000000,36.530000
5.324,0.000000,0.000000,0.000000,0.000000,0.000000,0.000000,36.530000
5.332,0.000000,0.000000,0.000000,0.000000,0.000000,0.000000,36.530000
5.337,0.000000,0.000000,0.000000,0.000000,0.000000,0.000000,36.530000
5.348,0.000000,0.000000,0.000000,0.000000,0.000000,0.000000,36.530000
5.353,0.000000,0.000000,0.000000,0.000000,0.000000,0.000000,36.530000
5.365,0.000000,0.000000,0.000000,0.000000,0.000000,0.000000,36.530000
5.372,0.000000,0.000000,0.000000,0.000000,0.000000,0.000000,36.530000
5.382,0.000000,0.000000,0.000000,0.000000,0.000000,0.000000,36.530000
5.387,0.000000,0.000000,0.000000,0.000000,0.000000,0.000000,36.530000
5.398,0.000000,0.000000,0.000000,0.000000,0.000000,0.000000,36.530000
5.404,0.000000,0.000000,0.000000,0.000000,0.000000,0.000000,36.530000
5.414,0.000000,0.000000,0.000000,0.000000,0.000000,0.000000,36.530000
5.422,0.000000,0.000000,0.000000,0.000000,0.000000,0.000000,36.530000
5.432,0.000000,0.000000,0.000000,0.000000,0.000000,0.000000,36.530000
5.438,0.000000,0.000000,0.000000,0.000000,0.000000,0.000000,36.530000
5.448,0.000000,0.000000,0.000000,0.000000,0.000000,0.000000,36.530000
5.453,0.000000,0.000000,0.000000,0.000000,0.000000,0.000000,36.530000
5.464,0.000000,0.000000,0.000000,0.000000,0.000000,0.000000,36.530000
5.472,0.000000,0.000000,0.000000,0.000000,0.000000,0.000000,36.530000
5.482,0.000000,0.000000,0.000000,0.000000,0.000000,0.000000,36.530000
5.489,0.000000,0.000000,0.000000,0.000000,0.000000,0.000000,36.530000
5.498,0.000000,0.000000,0.000000,0.000000,0.000000,0.000000,36.530000
5.503,0.000000,0.000000,0.000000,0.000000,0.000000,0.000000,36.530000
5.514,0.000000,0.000000,0.000000,0.000000,0.000000,0.000000,36.530000
5.524,0.000000,0.000000,0.000000,0.000000,0.000000,0.000000,36.530000
5.532,0.000000,0.000000,0.000000,0.000000,0.000000,0.000000,36.530000
5.539,0.000000,0.000000,0.000000,0.000000,0.000000,0.000000,36.530000
5.548,0.000000,0.000000,0.000000,0.000000,0.000000,0.000000,36.530000
5.553,0.000000,0.000000,0.000000,0.000000,0.000000,0.000000,36.530000
5.564,0.000000,0.000000,0.000000,0.000000,0.000000,0.000000,36.530000
5.574,0.000000,0.000000,0.000000,0.000000,0.000000,0.000000,36.530000
5.582,0.000000,0.000000,0.000000,0.000000,0.000000,0.000000,36.530000
5.589,0.000000,0.000000,0.000000,0.000000,0.000000,0.000000,36.530000
5.598,0.000000,0.000000,0.000000,0.000000,0.000000,0.000000,36.530000
5.603,0.000000,0.000000,0.000000,0.000000,0.000000,0.000000,36.530000
5.615,0.000000,0.000000,0.000000,0.000000,0.000000,0.000000,36.530000
5.622,0.000000,0.000000,0.000000,0.000000,0.000000,0.000000,36.530000
5.632,0.000000,0.000000,0.000000,0.000000,0.000000,0.000000,36.530000
5.639,0.000000,0.000000,0.000000,0.000000,0.000000,0.000000,36.530000
5.648,0.000000,0.000000,0.000000,0.000000,0.000000,0.000000,36.530000
5.653,0.000000,0.000000,0.000000,0.000000,0.000000,0.000000,36.530000
5.664,0.000000,0.000000,0.000000,0.000000,0.000000,0.000000,36.530000
5.672,0.000000,0.000000,0.000000,0.000000,0.000000,0.000000,36.530000
5.682,0.000000,0.000000,0.000000,0.000000,0.000000,0.000000,36.530000
5.689,0.000000,0.000000,0.000000,0.000000,0.000000,0.000000,36.530000
5.698,0.000000,0.000000,0.000000,0.000000,0.000000,0.000000,36.530000
5.703,0.000000,0.000000,0.000000,0.000000,0.000000,0.000000,36.530000
5.714,0.000000,0.000000,0.000000,0.000000,0.000000,0.000000,36.530000
5.724,0.000000,0.000000,0.000000,0.000000,0.000000,0.000000,36.530000
5.732,0.000000,0.000000,0.000000,0.000000,0.000000,0.000000,36.530000
5.739,0.000000,0.000000,0.000000,0.000000,0.000000,0.000000,36.530000
5.748,0.000000,0.000000,0.000000,0.000000,0.000000,0.000000,36.530000
5.753,0.000000,0.000000,0.000000,0.000000,0.000000,0.000000,36.530000
5.764,0.000000,0.000000,0.000000,0.000000,0.000000,0.000000,36.530000
5.774,0.000000,0.000000,0.000000,0.000000,0.000000,0.000000,36.530000
5.782,0.000000,0.000000,0.000000,0.000000,0.000000,0.000000,36.530000
5.789,0.000000,0.000000,0.000000,0.000000,0.000000,0.000000,36.530000
5.798,0.000000,0.000000,0.000000,0.000000,0.000000,0.000000,36.530000
5.803,0.000000,0.000000,0.000000,0.000000,0.000000,0.000000,36.530000
5.814,0.000000,0.000000,0.000000,0.000000,0.000000,0.000000,36.530000
5.824,0.000000,0.000000,0.000000,0.000000,0.000000,0.000000,36.530000
5.832,0.000000,0.000000,0.000000,0.000000,0.000000,0.000000,36.530000
5.840,0.000000,0.000000,0.000000,0.000000,0.000000,0.000000,36.530000
5.848,0.000000,0.000000,0.000000,0.000000,0.000000,0.000000,36.530000
5.853,0.000000,0.000000,0.000000,0.000000,0.000000,0.000000,36.530000
5.864,0.000000,0.000000,0.000000,0.000000,0.000000,0.000000,36.530000
5.872,0.000000,0.000000,0.000000,0.000000,0.000000,0.000000,36.530000
5.882,0.000000,0.000000,0.000000,0.000000,0.000000,0.000000,36.530000
5.889,0.000000,0.000000,0.000000,0.000000,0.000000,0.000000,36.530000
5.898,0.000000,0.000000,0.000000,0.000000,0.000000,0.000000,36.530000
5.903,0.000000,0.000000,0.000000,0.000000,0.000000,0.000000,36.530000
5.914,0.000000,0.000000,0.000000,0.000000,0.000000,0.000000,36.530000
5.924,0.000000,0.000000,0.000000,0.000000,0.000000,0.000000,36.530000
5.932,0.000000,0.000000,0.000000,0.000000,0.000000,0.000000,36.530000
5.939,0.000000,0.000000,0.000000,0.000000,0.000000,0.000000,36.530000
5.948,0.000000,0.000000,0.000000,0.000000,0.000000,0.000000,36.530000
5.953,0.000000,0.000000,0.000000,0.000000,0.000000,0.000000,36.530000
5.964,0.000000,0.000000,0.000000,0.000000,0.000000,0.000000,36.530000
5.974,0.000000,0.000000,0.000000,0.000000,0.000000,0.000000,36.530000
5.982,0.000000,0.000000,0.000000,0.000000,0.000000,0.000000,36.530000
5.988,0.000000,0.000000,0.000000,0.000000,0.000000,0.000000,36.530000
5.998,0.000000,0.000000,0.000000,0.000000,0.000000,0.000000,36.530000
6.004,0.000000,0.000000,0.000000,0.000000,0.000000,0.000000,36.530000
6.014,0.000000,0.000000,0.000000,0.000000,0.000000,0.000000,36.530000
6.024,0.000000,0.000000,0.000000,0.000000,0.000000,0.000000,36.530000
6.032,0.000000,0.000000,0.000000,0.000000,0.000000,0.000000,36.530000
6.039,0.000000,0.000000,0.000000,0.000000,0.000000,0.000000,36.530000
6.048,0.000000,0.000000,0.000000,0.000000,0.000000,0.000000,36.530000
6.053,0.000000,0.000000,0.000000,0.000000,0.000000,0.000000,36.530000
6.064,0.000000,0.000000,0.000000,0.000000,0.000000,0.000000,36.530000
6.074,0.000000,0.000000,0.000000,0.000000,0.000000,0.000000,36.530000
6.082,0.000000,0.000000,0.000000,0.000000,0.000000,0.000000,36.530000
6.087,0.000000,0.000000,0.000000,0.000000,0.000000,0.000000,36.530000
6.098,0.000000,0.000000,0.000000,0.000000,0.000000,0.000000,36.530000
6.104,0.000000,0.000000,0.000000,0.000000,0.000000,0.000000,36.530000
6.114,0.000000,0.000000,0.000000,0.000000,0.000000,0.000000,36.530000
6.124,0.000000,0.000000,0.000000,0.000000,0.000000,0.000000,36.530000
6.132,0.000000,0.000000,0.000000,0.000000,0.000000,0.000000,36.530000
6.137,0.000000,0.000000,0.000000,0.000000,0.000000,0.000000,36.530000
6.148,0.000000,0.000000,0.000000,0.000000,0.000000,0.000000,36.530000
6.154,0.000000,0.000000,0.000000,0.000000,0.000000,0.000000,36.530000
6.164,0.000000,0.000000,0.000000,0.000000,0.000000,0.000000,36.530000
6.172,0.000000,0.000000,0.000000,0.000000,0.000000,0.000000,36.530000
6.182,0.000000,0.000000,0.000000,0.000000,0.000000,0.000000,36.530000
6.187,0.000000,0.000000,0.000000,0.000000,0.000000,0.000000,36.530000
6.198,0.000000,0.000000,0.000000,0.000000,0.000000,0.000000,36.530000
6.204,0.000000,0.000000,0.000000,0.000000,0.000000,0.000000,36.530000
6.214,0.000000,0.000000,0.000000,0.000000,0.000000,0.000000,36.530000
6.224,0.000000,0.000000,0.000000,0.000000,0.000000,0.000000,36.530000
6.232,0.000000,0.000000,0.000000,0.000000,0.000000,0.000000,36.530000
6.237,0.000000,0.000000,0.000000,0.000000,0.000000,0.000000,36.530000
6.248,0.000000,0.000000,0.000000,0.000000,0.000000,0.000000,36.530000
6.253,0.000000,0.000000,0.000000,0.000000,0.000000,0.000000,36.530000
6.264,0.000000,0.000000,0.000000,0.000000,0.000000,0.000000,36.530000
6.274,0.000000,0.000000,0.000000,0.000000,0.000000,0.000000,36.530000
6.282,0.000000,0.000000,0.000000,0.000000,0.000000,0.000000,36.530000
6.288,0.000000,0.000000,0.000000,0.000000,0.000000,0.000000,36.530000
6.298,0.000000,0.000000,0.000000,0.000000,0.000000,0.000000,36.530000
6.303,0.000000,0.000000,0.000000,0.000000,0.000000,0.000000,36.530000
6.314,0.000000,0.000000,0.000000,0.000000,0.000000,0.000000,36.530000
6.324,0.000000,0.000000,0.000000,0.000000,0.000000,0.000000,36.530000
6.332,0.000000,0.000000,0.000000,0.000000,0.000000,0.000000,36.530000
6.339,0.000000,0.000000,0.000000,0.000000,0.000000,0.000000,36.530000
6.348,0.000000,0.000000,0.000000,0.000000,0.000000,0.000000,36.530000
6.353,0.000000,0.000000,0.000000,0.000000,0.000000,0.000000,36.530000
6.364,0.000000,0.000000,0.000000,0.000000,0.000000,0.000000,36.530000
6.374,0.000000,0.000000,0.000000,0.000000,0.000000,0.000000,36.530000
6.382,0.000000,0.000000,0.000000,0.000000,0.000000,0.000000,36.530000
6.388,0.000000,0.000000,0.000000,0.000000,0.000000,0.000000,36.530000
6.398,0.000000,0.000000,0.000000,0.000000,0.000000,0.000000,36.530000
6.404,0.000000,0.000000,0.000000,0.000000,0.000000,0.000000,36.530000
time_sec,ax,ay,az,gx,gy,gz,temp_c
0.001,0.700000,0.587000,0.417000,46.901000,46.183000,5.336000,28.340000
0.015,0.705000,0.614000,0.431000,47.840000,56.733000,12.267000,28.480000
0.027,0.649000,0.658000,0.438000,47.000000,61.771000,18.290000,28.480000
0.034,0.517000,0.686000,0.457000,43.252000,50.130000,20.656000,28.390000
0.047,0.483000,0.651000,0.440000,38.649000,31.229000,15.290000,28.440000
0.054,0.450000,0.623000,0.424000,37.435000,15.237000,7.550000,28.440000
0.068,0.481000,0.629000,0.440000,34.374000,4.695000,0.618000,28.440000
0.075,0.554000,0.598000,0.476000,31.710000,0.611000,-2.489000,28.390000
0.090,0.643000,0.573000,0.484000,34.191000,9.794000,-1.412000,28.390000
0.095,0.703000,0.607000,0.480000,39.580000,29.000000,0.481000,28.340000
0.107,0.693000,0.621000,0.464000,38.924000,50.374000,3.901000,28.440000
0.114,0.730000,0.641000,0.476000,37.511000,65.847000,8.992000,28.440000
0.127,0.770000,0.652000,0.476000,40.626000,81.733000,19.863000,28.480000
0.134,0.589000,0.667000,0.464000,36.015000,77.924000,25.924000,28.390000
0.147,0.477000,0.637000,0.448000,31.817000,57.939000,23.366000,28.480000
0.154,0.456000,0.640000,0.441000,36.366000,44.443000,18.344000,28.480000
0.167,0.471000,0.667000,0.437000,37.939000,38.550000,11.366000,28.340000
0.175,0.488000,0.662000,0.436000,31.198000,40.359000,2.382000,28.390000
0.187,0.521000,0.690000,0.484000,25.603000,40.206000,-7.481000,28.580000
0.194,0.562000,0.677000,0.474000,24.916000,50.573000,-19.855000,28.390000
0.206,0.579000,0.632000,0.463000,23.672000,57.939000,-26.252000,28.440000
0.214,0.590000,0.583000,0.482000,23.565000,59.878000,-33.573000,28.620000
0.226,0.600000,0.543000,0.481000,21.908000,59.023000,-37.664000,28.480000
0.233,0.602000,0.539000,0.486000,24.137000,58.954000,-41.809000,28.390000
0.246,0.631000,0.562000,0.501000,20.244000,55.412000,-44.008000,28.390000
0.253,0.635000,0.580000,0.522000,15.588000,46.718000,-46.550000,28.440000
0.266,0.710000,0.626000,0.513000,-1.076000,46.748000,-39.496000,28.340000
0.274,0.667000,0.618000,0.401000,-9.962000,44.687000,-33.420000,28.390000
0.285,0.580000,0.597000,0.405000,-14.061000,29.092000,-33.008000,28.480000
0.290,0.590000,0.560000,0.355000,-5.450000,18.504000,-33.473000,28.390000
0.307,0.627000,0.578000,0.372000,8.885000,16.458000,-29.985000,28.440000
0.317,0.686000,0.582000,0.386000,25.847000,28.550000,-27.565000,28.440000
0.325,0.668000,0.571000,0.387000,40.847000,43.450000,-23.389000,28.440000
0.337,0.603000,0.527000,0.495000,47.817000,38.412000,-23.214000,28.480000
0.344,0.478000,0.669000,0.416000,39.031000,43.756000,-18.756000,28.390000
0.357,0.487000,0.726000,0.456000,35.221000,40.878000,-19.565000,28.390000
0.367,0.476000,0.718000,0.458000,27.076000,39.565000,-17.542000,28.530000
0.376,0.473000,0.732000,0.489000,18.679000,35.153000,-14.214000,28.440000
0.383,0.461000,0.743000,0.512000,1.634000,24.443000,-10.588000,28.390000
0.396,0.499000,0.732000,0.498000,-15.985000,16.786000,2.885000,28.480000
0.403,0.522000,0.757000,0.476000,-33.031000,12.229000,11.198000,28.440000
0.416,0.585000,0.819000,0.428000,-42.763000,15.496000,18.160000,28.440000
0.423,0.558000,0.828000,0.389000,-48.344000,17.092000,20.832000,28.440000
0.435,0.526000,0.774000,0.325000,-38.046000,17.473000,12.382000,28.390000
0.442,0.491000,0.771000,0.305000,-30.573000,12.824000,3.107000,28.390000
0.456,0.393000,0.768000,0.302000,-26.214000,-9.336000,-2.084000,28.440000
0.462,0.360000,0.706000,0.268000,-19.725000,-33.740000,-7.504000,28.440000
0.475,0.410000,0.660000,0.298000,-14.992000,-56.672000,-8.939000,28.340000
0.487,0.533000,0.634000,0.377000,-2.557000,-63.924000,-11.214000,28.390000
0.494,0.632000,0.623000,0.422000,8.061000,-56.046000,-7.351000,28.480000
0.508,0.706000,0.648000,0.489000,20.000000,-37.107000,-4.092000,28.340000
0.516,0.734000,0.672000,0.532000,27.496000,-12.298000,-0.481000,28.440000
0.527,0.708000,0.666000,0.546000,32.290000,10.664000,2.115000,28.440000
0.534,0.628000,0.702000,0.578000,34.687000,24.290000,5.511000,28.390000
0.546,0.472000,0.790000,0.590000,26.527000,20.863000,9.954000,28.390000
0.554,0.332000,0.776000,0.572000,20.366000,3.282000,8.336000,28.480000
0.567,0.312000,0.702000,0.549000,15.145000,-14.130000,4.458000,28.440000
0.574,0.384000,0.694000,0.582000,16.634000,-26.786000,0.305000,28.440000
0.586,0.505000,0.689000,0.618000,14.504000,-25.221000,-3.580000,28.480000
0.593,0.605000,0.639000,0.606000,7.779000,-12.527000,-2.947000,28.390000
0.607,0.646000,0.562000,0.568000,5.183000,1.176000,2.061000,28.340000
0.616,0.652000,0.529000,0.536000,11.046000,14.855000,6.855000,28.340000
0.627,0.569000,0.588000,0.567000,12.679000,17.145000,12.710000,28.440000
0.634,0.496000,0.638000,0.592000,9.374000,11.901000,15.214000,28.390000
0.646,0.512000,0.666000,0.584000,13.092000,7.573000,15.817000,28.390000
0.654,0.530000,0.739000,0.579000,9.649000,6.336000,17.458000,28.440000
0.667,0.568000,0.763000,0.591000,11.221000,11.824000,14.092000,28.440000
0.674,0.589000,0.746000,0.609000,7.580000,21.069000,11.008000,28.440000
0.687,0.621000,0.742000,0.573000,7.298000,25.031000,8.466000,28.480000
0.694,0.614000,0.724000,0.537000,5.672000,26.565000,12.160000,28.390000
0.707,0.596000,0.732000,0.529000,6.702000,25.176000,13.443000,28.440000
0.714,0.603000,0.772000,0.567000,1.954000,18.550000,16.771000,28.440000
0.726,0.645000,0.804000,0.588000,-2.260000,15.275000,19.626000,28.440000
0.733,0.745000,0.789000,0.553000,-8.725000,22.695000,23.443000,28.390000
0.746,0.801000,0.722000,0.501000,-8.542000,32.405000,28.389000,28.480000
0.753,0.867000,0.663000,0.455000,-0.802000,46.237000,35.885000,28.480000
0.766,0.778000,0.702000,0.448000,5.084000,51.893000,44.305000,28.440000
0.774,0.635000,0.720000,0.447000,13.099000,46.237000,47.969000,28.440000
0.786,0.537000,0.737000,0.455000,17.420000,37.992000,41.855000,28.480000
0.793,0.529000,0.740000,0.510000,20.466000,24.695000,33.855000,28.390000
0.806,0.555000,0.729000,0.568000,15.626000,13.748000,27.649000,28.440000
0.813,0.593000,0.684000,0.594000,3.405000,4.252000,17.802000,28.440000
0.826,0.697000,0.657000,0.625000,-3.229000,-1.885000,10.183000,28.440000
0.833,0.792000,0.627000,0.654000,-5.550000,-0.412000,7.382000,28.480000
0.846,0.872000,0.643000,0.652000,-7.183000,2.458000,9.924000,28.390000
0.853,0.928000,0.663000,0.669000,-10.824000,7.679000,16.992000,28.440000
0.866,0.939000,0.658000,0.604000,-12.053000,15.122000,26.847000,28.440000
0.873,0.905000,0.648000,0.562000,-9.809000,15.321000,38.099000,28.440000
0.885,0.877000,0.641000,0.548000,-7.519000,15.443000,47.382000,28.480000
0.893,0.854000,0.604000,0.545000,-0.748000,16.092000,51.687000,28.480000
0.905,0.840000,0.654000,0.627000,4.412000,18.443000,57.221000,28.530000
0.914,0.777000,0.675000,0.648000,1.282000,19.672000,62.206000,28.440000
0.926,0.756000,0.637000,0.667000,-2.969000,20.321000,66.305000,28.440000
0.932,0.717000,0.698000,0.729000,-8.679000,19.954000,71.870000,28.390000
0.945,0.709000,0.705000,0.763000,-18.115000,23.000000,70.832000,28.390000
0.952,0.693000,0.644000,0.735000,-21.412000,23.206000,64.756000,28.390000
0.966,0.700000,0.626000,0.740000,-22.466000,23.771000,58.328000,28.440000
0.977,0.668000,0.626000,0.727000,-22.626000,21.489000,53.542000,28.440000
0.984,0.660000,0.626000,0.724000,-18.878000,14.794000,50.954000,28.480000
0.997,0.658000,0.701000,0.784000,-22.840000,8.771000,50.008000,28.390000
1.004,0.706000,0.714000,0.812000,-27.855000,9.809000,44.237000,28.440000
1.017,0.758000,0.708000,0.793000,-35.061000,14.176000,42.832000,28.440000
1.024,0.771000,0.692000,0.747000,-41.542000,18.496000,43.740000,28.480000
1.036,0.744000,0.631000,0.708000,-42.153000,17.275000,43.924000,28.480000
1.043,0.731000,0.604000,0.663000,-40.740000,16.718000,45.756000,28.480000
1.056,0.719000,0.595000,0.642000,-36.878000,13.664000,49.328000,28.440000
1.063,0.683000,0.589000,0.647000,-33.435000,11.580000,51.099000,28.440000
1.076,0.645000,0.613000,0.675000,-34.153000,9.397000,49.427000,28.480000
1.083,0.636000,0.608000,0.676000,-32.504000,9.000000,42.458000,28.390000
1.096,0.609000,0.588000,0.702000,-32.405000,8.618000,34.008000,28.390000
1.103,0.589000,0.609000,0.724000,-32.359000,7.244000,24.511000,28.440000
1.118,0.592000,0.650000,0.768000,-37.679000,8.344000,15.519000,28.440000
1.123,0.657000,0.640000,0.769000,-45.389000,11.626000,10.718000,28.390000
1.135,0.711000,0.650000,0.754000,-49.939000,18.359000,9.237000,28.480000
1.142,0.722000,0.625000,0.745000,-56.038000,20.740000,13.527000,28.480000
1.156,0.732000,0.595000,0.716000,-60.603000,19.191000,17.641000,28.530000
1.167,0.713000,0.587000,0.666000,-64.183000,14.053000,21.962000,28.440000
1.175,0.701000,0.564000,0.645000,-63.557000,4.809000,23.595000,28.480000
1.187,0.703000,0.546000,0.635000,-59.489000,-3.718000,26.397000,28.390000
1.194,0.727000,0.567000,0.666000,-56.382000,-12.153000,32.115000,28.440000
1.208,0.726000,0.563000,0.680000,-52.802000,-16.313000,39.626000,28.440000
1.215,0.736000,0.581000,0.680000,-47.954000,-13.321000,45.954000,28.440000
1.227,0.731000,0.571000,0.671000,-42.824000,-6.252000,50.069000,28.480000
1.233,0.699000,0.578000,0.704000,-46.954000,3.565000,51.702000,28.480000
1.246,0.676000,0.576000,0.729000,-50.214000,11.733000,51.550000,28.530000
1.253,0.647000,0.564000,0.711000,-53.733000,18.756000,49.076000,28.440000
1.267,0.605000,0.576000,0.709000,-57.740000,22.580000,46.290000,28.440000
1.274,0.609000,0.584000,0.707000,-64.160000,23.740000,45.267000,28.480000
1.285,0.625000,0.564000,0.702000,-65.817000,24.779000,43.885000,28.390000
1.292,0.646000,0.502000,0.688000,-63.565000,29.321000,45.031000,28.440000
1.307,0.639000,0.488000,0.705000,-62.397000,30.947000,50.595000,28.440000
1.311,0.598000,0.493000,0.695000,-66.015000,32.427000,55.847000,28.440000
1.325,0.583000,0.484000,0.700000,-69.969000,30.580000,59.145000,28.390000
1.337,0.580000,0.467000,0.682000,-71.176000,30.282000,63.092000,28.480000
1.344,0.557000,0.462000,0.677000,-67.733000,31.595000,64.489000,28.480000
1.357,0.572000,0.442000,0.682000,-65.947000,37.145000,60.710000,28.440000
1.364,0.570000,0.364000,0.656000,-65.771000,39.908000,61.382000,28.530000
1.377,0.528000,0.313000,0.627000,-66.573000,39.076000,60.901000,28.480000
1.383,0.490000,0.317000,0.610000,-65.618000,33.855000,56.824000,28.480000
1.396,0.461000,0.300000,0.605000,-60.580000,23.420000,50.351000,28.530000
1.403,0.453000,0.302000,0.641000,-57.481000,10.443000,44.893000,28.440000
1.416,0.480000,0.295000,0.664000,-56.649000,-0.908000,38.679000,28.390000
1.424,0.546000,0.228000,0.657000,-53.176000,-6.290000,37.634000,28.390000
1.435,0.566000,0.215000,0.679000,-50.626000,-6.687000,40.786000,28.390000
1.442,0.560000,0.203000,0.681000,-51.115000,-9.290000,42.351000,28.440000
1.456,0.554000,0.243000,0.703000,-48.084000,-10.275000,42.534000,28.440000
1.462,0.580000,0.283000,0.740000,-47.008000,-8.504000,41.397000,28.390000
1.475,0.617000,0.285000,0.753000,-43.809000,-4.115000,43.649000,28.390000
1.487,0.627000,0.285000,0.772000,-47.008000,3.550000,48.130000,28.480000
1.494,0.622000,0.257000,0.756000,-51.916000,11.779000,51.122000,28.440000
1.508,0.597000,0.202000,0.728000,-54.565000,18.061000,55.397000,28.440000
1.515,0.545000,0.153000,0.699000,-54.649000,22.176000,59.229000,28.480000
1.527,0.483000,0.158000,0.662000,-56.298000,19.962000,59.466000,28.480000
1.534,0.417000,0.178000,0.650000,-55.992000,10.435000,54.412000,28.480000
1.546,0.448000,0.158000,0.651000,-53.023000,2.374000,46.573000,28.440000
1.553,0.510000,0.154000,0.670000,-44.641000,10.420000,42.336000,28.440000
1.566,0.512000,0.145000,0.689000,-45.115000,17.985000,43.519000,28.390000
1.574,0.511000,0.087000,0.673000,-45.786000,23.588000,40.954000,28.390000
1.586,0.490000,0.043000,0.635000,-42.901000,29.595000,36.794000,28.340000
1.593,0.507000,0.020000,0.594000,-39.763000,30.992000,30.237000,28.440000
1.606,0.534000,0.033000,0.596000,-37.473000,35.679000,25.115000,28.440000
1.613,0.519000,0.046000,0.601000,-33.916000,37.397000,22.015000,28.390000
1.625,0.514000,0.033000,0.612000,-30.527000,34.153000,17.397000,28.390000
1.630,0.543000,-0.015000,0.615000,-25.282000,34.214000,15.916000,28.340000
1.644,0.531000,-0.027000,0.611000,-24.015000,31.496000,17.267000,28.340000
1.658,0.487000,-0.038000,0.608000,-21.718000,21.656000,19.160000,28.440000
1.665,0.469000,-0.065000,0.618000,-15.183000,7.832000,22.069000,28.390000
1.676,0.462000,-0.083000,0.630000,-8.634000,-4.053000,19.176000,28.480000
1.684,0.473000,-0.034000,0.656000,-5.137000,-13.534000,14.153000,28.340000
1.696,0.517000,-0.015000,0.673000,-2.855000,-16.473000,10.542000,28.440000
1.703,0.574000,-0.021000,0.675000,2.084000,-13.046000,9.634000,28.340000
1.717,0.600000,-0.015000,0.695000,5.931000,-5.611000,15.466000,28.480000
1.724,0.586000,-0.038000,0.710000,5.321000,1.786000,24.901000,28.480000
1.736,0.518000,-0.034000,0.724000,1.641000,8.374000,31.031000,28.390000
1.743,0.439000,0.021000,0.744000,-6.809000,10.977000,32.450000,28.440000
1.756,0.466000,-0.037000,0.723000,-14.153000,21.840000,28.015000,28.440000
1.763,0.444000,-0.067000,0.709000,-12.672000,30.145000,26.359000,28.480000
1.775,0.351000,-0.055000,0.685000,-14.565000,31.382000,21.374000,28.480000
1.782,0.285000,-0.045000,0.658000,-12.740000,21.550000,15.649000,28.440000
1.795,0.264000,-0.043000,0.651000,-7.405000,9.496000,8.405000,28.440000
1.800,0.281000,-0.071000,0.675000,-0.931000,-1.527000,1.702000,28.440000
1.815,0.334000,-0.098000,0.681000,5.481000,-8.595000,-2.130000,28.390000
1.828,0.417000,-0.118000,0.681000,4.145000,-12.405000,-6.725000,28.390000
1.834,0.510000,-0.109000,0.657000,-0.435000,-12.267000,-6.565000,28.340000
1.847,0.566000,-0.109000,0.633000,-3.435000,-11.672000,-3.763000,28.340000
1.854,0.577000,-0.078000,0.632000,-5.626000,-13.221000,2.359000,28.340000
1.867,0.592000,-0.080000,0.656000,-4.389000,-11.145000,6.305000,28.480000
1.874,0.599000,-0.078000,0.700000,-3.023000,-3.351000,11.435000,28.390000
1.886,0.572000,-0.080000,0.698000,-6.908000,8.626000,12.786000,28.440000
1.893,0.525000,-0.084000,0.691000,-11.977000,17.137000,9.221000,28.440000
1.906,0.541000,-0.098000,0.647000,-17.618000,28.137000,3.351000,28.390000
1.913,0.527000,-0.121000,0.615000,-18.649000,34.420000,-1.168000,28.390000
1.925,0.477000,-0.113000,0.587000,-13.702000,30.618000,-2.198000,28.480000
1.932,0.406000,-0.086000,0.637000,-8.565000,17.244000,2.565000,28.390000
1.945,0.366000,-0.114000,0.692000,-5.122000,3.771000,9.099000,28.340000
1.952,0.386000,-0.146000,0.722000,-12.084000,-0.076000,11.649000,28.480000
1.965,0.440000,-0.200000,0.725000,-19.145000,3.374000,11.351000,28.390000
1.977,0.493000,-0.176000,0.670000,-31.008000,16.076000,10.359000,28.390000
1.984,0.432000,-0.212000,0.595000,-34.611000,17.450000,13.626000,28.440000
1.997,0.379000,-0.255000,0.537000,-32.374000,10.847000,17.038000,28.440000
2.004,0.335000,-0.256000,0.508000,-30.305000,1.214000,17.053000,28.390000
2.017,0.302000,-0.313000,0.523000,-18.351000,-8.000000,17.107000,28.480000
2.025,0.239000,-0.330000,0.574000,-5.901000,-16.351000,16.145000,28.340000
2.036,0.208000,-0.319000,0.615000,-4.588000,-20.046000,14.588000,28.440000
2.043,0.238000,-0.307000,0.631000,-13.565000,-11.046000,13.069000,28.440000
2.057,0.255000,-0.277000,0.595000,-29.313000,0.069000,8.344000,28.480000
2.063,0.272000,-0.257000,0.546000,-35.870000,7.313000,1.748000,28.390000
2.075,0.298000,-0.235000,0.545000,-35.924000,11.878000,-6.702000,28.440000
2.087,0.319000,-0.244000,0.549000,-27.565000,13.405000,-15.656000,28.440000
2.094,0.329000,-0.262000,0.579000,-18.008000,13.115000,-22.198000,28.440000
2.107,0.311000,-0.296000,0.585000,-12.160000,10.725000,-23.427000,28.480000
2.114,0.268000,-0.327000,0.557000,-14.359000,-1.855000,-19.282000,28.390000
2.126,0.284000,-0.333000,0.511000,-14.947000,-18.916000,-15.084000,28.390000
2.133,0.352000,-0.323000,0.526000,-9.992000,-28.947000,-13.763000,28.440000
2.145,0.408000,-0.286000,0.544000,-4.473000,-35.634000,-14.763000,28.340000
2.152,0.446000,-0.273000,0.537000,1.038000,-39.008000,-16.947000,28.480000
2.165,0.459000,-0.273000,0.556000,8.046000,-43.267000,-16.824000,28.390000
2.177,0.481000,-0.257000,0.599000,9.733000,-43.603000,-17.015000,28.440000
2.184,0.546000,-0.233000,0.609000,2.511000,-32.275000,-17.046000,28.440000
2.196,0.574000,-0.237000,0.593000,-6.718000,-14.580000,-17.046000,28.340000
2.204,0.587000,-0.248000,0.522000,-12.931000,3.122000,-20.916000,28.480000
2.217,0.598000,-0.232000,0.465000,-13.389000,14.504000,-23.771000,28.480000
2.224,0.551000,-0.240000,0.456000,-6.405000,14.496000,-22.939000,28.440000
2.235,0.518000,-0.239000,0.456000,1.718000,13.458000,-25.008000,28.340000
2.243,0.468000,-0.251000,0.495000,11.962000,8.290000,-26.695000,28.340000
2.256,0.414000,-0.231000,0.543000,19.756000,-1.229000,-26.015000,28.390000
2.263,0.405000,-0.188000,0.585000,16.817000,-11.023000,-22.847000,28.390000
2.275,0.427000,-0.176000,0.603000,14.710000,-18.458000,-22.603000,28.440000
2.287,0.464000,-0.189000,0.590000,14.397000,-23.893000,-20.550000,28.440000
2.294,0.485000,-0.156000,0.575000,10.901000,-29.359000,-20.573000,28.530000
2.306,0.503000,-0.141000,0.576000,11.092000,-37.290000,-21.603000,28.390000
2.313,0.549000,-0.135000,0.599000,17.450000,-41.382000,-22.809000,28.480000
2.325,0.560000,-0.104000,0.639000,21.779000,-40.412000,-23.046000,28.390000
2.332,0.570000,-0.094000,0.675000,19.061000,-37.107000,-25.260000,28.440000
2.345,0.583000,-0.106000,0.680000,17.130000,-34.053000,-26.740000,28.480000
2.359,0.607000,-0.093000,0.680000,8.618000,-24.771000,-28.443000,28.480000
2.365,0.619000,-0.092000,0.649000,1.214000,-14.069000,-29.618000,28.480000
2.377,0.630000,-0.096000,0.639000,-4.916000,-3.634000,-30.817000,28.440000
2.384,0.625000,-0.088000,0.619000,-8.359000,6.687000,-30.626000,28.440000
2.396,0.581000,-0.078000,0.594000,-9.573000,8.061000,-30.313000,28.480000
2.403,0.555000,-0.089000,0.561000,-5.641000,5.237000,-31.779000,28.480000
2.417,0.572000,-0.099000,0.590000,-0.855000,1.160000,-30.084000,28.390000
2.424,0.566000,-0.099000,0.583000,0.527000,2.450000,-34.649000,28.440000
2.436,0.571000,-0.086000,0.579000,5.756000,-0.443000,-36.443000,28.440000
2.443,0.571000,-0.080000,0.575000,12.458000,-5.916000,-33.496000,28.480000
2.455,0.582000,-0.069000,0.582000,12.992000,-8.542000,-34.076000,28.390000
2.463,0.604000,-0.081000,0.590000,14.786000,-8.107000,-34.397000,28.480000
2.475,0.618000,-0.077000,0.604000,15.878000,-2.840000,-33.595000,28.440000
2.487,0.611000,-0.049000,0.600000,14.374000,-2.504000,-34.237000,28.440000
2.494,0.617000,-0.032000,0.619000,17.885000,-5.908000,-34.359000,28.480000
2.507,0.634000,-0.042000,0.618000,25.527000,-10.664000,-29.641000,28.480000
2.515,0.606000,-0.043000,0.643000,25.595000,-12.641000,-28.427000,28.390000
2.526,0.585000,-0.017000,0.692000,17.214000,-7.603000,-26.023000,28.480000
2.533,0.533000,0.017000,0.704000,12.099000,-0.252000,-22.847000,28.340000
2.546,0.511000,0.037000,0.661000,5.450000,1.481000,-25.962000,28.480000
2.553,0.573000,0.030000,0.647000,4.534000,-0.603000,-31.702000,28.480000
2.566,0.648000,-0.007000,0.617000,9.267000,4.870000,-37.458000,28.390000
2.573,0.694000,-0.024000,0.609000,15.481000,12.710000,-38.366000,28.530000
2.585,0.700000,-0.031000,0.608000,21.168000,18.221000,-36.450000,28.440000
2.592,0.626000,0.007000,0.633000,24.679000,18.908000,-30.038000,28.480000
2.607,0.539000,0.096000,0.631000,20.084000,11.145000,-24.511000,28.480000
2.611,0.530000,0.099000,0.602000,16.038000,-2.511000,-27.023000,28.390000
2.625,0.619000,0.082000,0.636000,23.489000,-10.191000,-27.550000,28.440000
2.637,0.648000,0.047000,0.698000,31.122000,-6.634000,-26.832000,28.440000
2.644,0.638000,0.037000,0.723000,34.901000,-1.198000,-27.122000,28.390000
2.658,0.614000,0.057000,0.738000,31.389000,0.351000,-25.420000,28.390000
2.665,0.573000,0.079000,0.693000,28.870000,-2.969000,-26.397000,28.480000
2.677,0.581000,0.083000,0.671000,29.092000,-7.046000,-31.618000,28.440000
2.683,0.616000,0.110000,0.706000,31.595000,-4.840000,-30.611000,28.440000
2.696,0.560000,0.172000,0.720000,31.748000,-5.137000,-24.481000,28.390000
2.703,0.456000,0.213000,0.719000,28.748000,-16.656000,-19.847000,28.390000
2.715,0.429000,0.247000,0.710000,24.626000,-31.000000,-20.351000,28.580000
2.724,0.463000,0.198000,0.679000,25.893000,-41.443000,-27.687000,28.390000
2.735,0.571000,0.166000,0.669000,27.221000,-40.733000,-37.595000,28.530000
2.742,0.644000,0.156000,0.707000,31.000000,-39.229000,-38.229000,28.390000
2.757,0.669000,0.132000,0.746000,30.237000,-30.595000,-38.969000,28.480000
2.768,0.644000,0.202000,0.772000,19.008000,-17.443000,-36.229000,28.480000
2.775,0.599000,0.289000,0.711000,7.641000,-14.649000,-37.290000,28.440000
2.787,0.648000,0.198000,0.636000,5.542000,-21.466000,-43.656000,28.340000
2.794,0.781000,0.154000,0.670000,11.267000,-17.763000,-45.519000,28.390000
2.806,0.794000,0.131000,0.680000,18.710000,-4.534000,-44.588000,28.480000
2.814,0.752000,0.149000,0.681000,23.420000,1.366000,-40.496000,28.390000
2.826,0.677000,0.155000,0.694000,28.229000,-6.992000,-31.328000,28.440000
2.833,0.581000,0.257000,0.701000,27.313000,-21.802000,-21.550000,28.440000
2.846,0.506000,0.366000,0.683000,18.870000,-42.252000,-19.771000,28.580000
2.852,0.542000,0.366000,0.651000,10.168000,-58.435000,-26.405000,28.480000
2.866,0.649000,0.321000,0.650000,10.443000,-65.649000,-31.008000,28.390000
2.871,0.736000,0.273000,0.644000,13.237000,-59.351000,-33.786000,28.440000
2.884,0.789000,0.258000,0.613000,15.878000,-52.397000,-35.924000,28.440000
2.897,0.838000,0.210000,0.594000,21.008000,-41.878000,-34.458000,28.480000
2.904,0.838000,0.207000,0.597000,24.336000,-25.802000,-25.618000,28.480000
2.918,0.757000,0.330000,0.629000,17.092000,-15.313000,-14.664000,28.480000
2.924,0.670000,0.406000,0.583000,3.672000,-12.282000,-19.145000,28.440000
2.936,0.726000,0.327000,0.545000,1.344000,-13.878000,-29.802000,28.440000
2.943,0.780000,0.290000,0.554000,9.435000,-8.313000,-37.160000,28.480000
2.957,0.774000,0.305000,0.574000,19.374000,-7.076000,-39.740000,28.480000
2.963,0.777000,0.271000,0.591000,26.527000,-5.053000,-38.252000,28.480000
2.976,0.774000,0.301000,0.605000,31.122000,-3.389000,-31.260000,28.440000
2.983,0.740000,0.376000,0.626000,28.756000,-5.695000,-21.214000,28.440000
2.995,0.689000,0.388000,0.628000,21.847000,-6.870000,-17.328000,28.480000
3.002,0.687000,0.393000,0.630000,20.427000,-13.565000,-19.023000,28.390000
3.015,0.710000,0.368000,0.628000,20.771000,-20.527000,-26.267000,28.480000
3.027,0.740000,0.318000,0.625000,24.595000,-22.664000,-33.427000,28.440000
3.034,0.755000,0.325000,0.634000,31.916000,-22.954000,-37.046000,28.440000
3.047,0.761000,0.318000,0.647000,36.427000,-17.328000,-38.573000,28.480000
3.054,0.774000,0.316000,0.651000,38.664000,-7.214000,-39.084000,28.480000
3.067,0.763000,0.409000,0.693000,35.183000,0.809000,-33.939000,28.480000
3.075,0.723000,0.464000,0.670000,23.695000,3.748000,-34.809000,28.340000
3.086,0.779000,0.391000,0.651000,23.511000,-0.756000,-40.710000,28.530000
3.093,0.847000,0.362000,0.656000,27.748000,-3.656000,-42.382000,28.480000
3.106,0.856000,0.356000,0.670000,36.069000,-0.290000,-40.389000,28.480000
3.113,0.787000,0.354000,0.675000,43.802000,-2.405000,-35.412000,28.480000
3.126,0.696000,0.401000,0.702000,47.176000,-11.389000,-28.137000,28.440000
3.132,0.606000,0.483000,0.740000,43.275000,-22.153000,-23.244000,28.530000
3.145,0.597000,0.536000,0.750000,33.412000,-30.298000,-22.359000,28.480000
3.157,0.639000,0.535000,0.725000,22.840000,-32.939000,-27.160000,28.580000
3.166,0.721000,0.489000,0.691000,18.519000,-33.061000,-33.985000,28.530000
3.177,0.795000,0.438000,0.689000,18.053000,-24.069000,-37.664000,28.440000
3.184,0.808000,0.401000,0.677000,22.450000,-9.847000,-35.397000,28.530000
3.197,0.760000,0.412000,0.667000,24.557000,2.305000,-29.893000,28.480000
3.204,0.682000,0.443000,0.662000,21.931000,6.542000,-23.206000,28.390000
3.218,0.627000,0.514000,0.640000,13.435000,7.122000,-23.214000,28.440000
3.224,0.650000,0.462000,0.605000,9.863000,5.420000,-29.863000,28.440000
3.236,0.692000,0.433000,0.611000,12.107000,-0.496000,-34.534000,28.530000
3.243,0.672000,0.426000,0.630000,18.053000,0.611000,-40.160000,28.480000
3.257,0.657000,0.417000,0.625000,21.672000,-6.809000,-43.168000,28.480000
3.264,0.661000,0.422000,0.642000,23.824000,-18.267000,-43.160000,28.440000
3.276,0.635000,0.437000,0.662000,23.695000,-27.069000,-40.779000,28.440000
3.283,0.624000,0.510000,0.694000,18.634000,-35.473000,-35.634000,28.530000
3.295,0.561000,0.527000,0.712000,9.748000,-40.321000,-32.809000,28.480000
3.302,0.552000,0.539000,0.720000,5.641000,-47.504000,-35.328000,28.480000
3.315,0.577000,0.565000,0.714000,0.176000,-50.740000,-42.939000,28.480000
3.327,0.652000,0.539000,0.697000,-4.176000,-49.038000,-53.679000,28.340000
3.335,0.716000,0.510000,0.666000,-5.443000,-43.267000,-63.015000,28.530000
3.346,0.768000,0.500000,0.647000,-5.397000,-31.733000,-66.443000,28.390000
3.354,0.772000,0.514000,0.660000,-4.634000,-23.626000,-65.153000,28.390000
3.367,0.769000,0.501000,0.695000,-6.977000,-17.313000,-57.420000,28.530000
3.374,0.726000,0.525000,0.725000,-10.695000,-11.466000,-47.565000,28.530000
3.385,0.674000,0.549000,0.712000,-21.962000,-11.992000,-44.031000,28.480000
3.392,0.714000,0.550000,0.711000,-28.130000,-21.458000,-42.878000,28.480000
3.406,0.747000,0.509000,0.704000,-28.847000,-16.702000,-45.496000,28.440000
3.417,0.740000,0.501000,0.692000,-23.115000,-12.679000,-48.511000,28.440000
3.425,0.679000,0.514000,0.718000,-17.847000,-12.626000,-50.344000,28.530000
3.437,0.622000,0.555000,0.777000,-15.405000,-17.221000,-52.168000,28.390000
3.443,0.571000,0.637000,0.769000,-26.725000,-29.908000,-60.809000,28.390000
3.457,0.638000,0.637000,0.781000,-42.687000,-46.382000,-74.092000,28.440000
3.463,0.832000,0.581000,0.744000,-51.901000,-53.763000,-71.313000,28.440000
3.476,0.961000,0.529000,0.723000,-55.855000,-53.374000,-57.267000,28.530000
3.481,0.995000,0.489000,0.738000,-51.183000,-44.756000,-41.977000,28.480000
3.494,0.993000,0.486000,0.775000,-42.099000,-38.244000,-22.145000,28.480000
3.508,0.955000,0.580000,0.918000,-42.679000,-39.076000,1.954000,28.580000
3.514,0.934000,0.649000,0.932000,-53.824000,-35.969000,18.618000,28.530000
3.527,0.979000,0.652000,0.920000,-69.534000,-22.786000,19.069000,28.480000
3.534,1.072000,0.588000,0.862000,-75.756000,6.267000,11.664000,28.480000
3.546,1.134000,0.530000,0.856000,-73.588000,40.267000,8.076000,28.480000
3.553,1.129000,0.473000,0.881000,-63.550000,58.809000,15.198000,28.440000
3.567,1.092000,0.547000,0.935000,-62.863000,71.519000,21.618000,28.530000
3.574,1.004000,0.555000,0.923000,-61.618000,76.061000,26.504000,28.580000
3.585,0.934000,0.573000,0.924000,-68.122000,81.733000,31.038000,28.580000
3.592,0.853000,0.622000,0.946000,-76.870000,81.863000,32.046000,28.480000
3.606,0.744000,0.611000,0.938000,-88.420000,77.366000,26.634000,28.530000
3.613,0.700000,0.602000,0.928000,-89.359000,73.061000,13.061000,28.530000
3.625,0.713000,0.612000,0.983000,-98.351000,64.359000,2.687000,28.390000
3.630,0.806000,0.578000,0.985000,-105.916000,56.450000,-0.496000,28.480000
3.644,0.879000,0.604000,0.983000,-124.855000,51.794000,7.565000,28.480000
3.657,0.780000,0.559000,0.936000,-137.031000,50.809000,14.611000,28.440000
3.665,0.677000,0.536000,0.900000,-143.305000,50.435000,12.153000,28.530000
3.677,0.601000,0.504000,0.841000,-145.046000,38.023000,5.840000,28.390000
3.684,0.574000,0.552000,0.865000,-148.405000,19.931000,4.145000,28.480000
3.696,0.576000,0.549000,0.906000,-155.221000,11.557000,-3.710000,28.480000
3.703,0.671000,0.597000,0.931000,-170.336000,13.519000,-4.992000,28.440000
3.717,0.725000,0.544000,0.898000,-182.313000,21.779000,-13.252000,28.530000
3.723,0.743000,0.427000,0.784000,-185.198000,23.832000,-15.969000,28.390000
3.735,0.697000,0.312000,0.689000,-158.672000,11.458000,-5.733000,28.390000
3.747,0.699000,0.301000,0.612000,-142.374000,9.389000,-0.168000,28.440000
3.754,0.597000,0.351000,0.654000,-138.824000,13.061000,-3.466000,28.440000
3.766,0.535000,0.342000,0.643000,-142.725000,9.824000,-2.328000,28.530000
3.775,0.559000,0.300000,0.630000,-141.710000,3.695000,0.840000,28.480000
3.786,0.625000,0.199000,0.566000,-132.427000,8.473000,-2.557000,28.390000
3.793,0.678000,0.176000,0.568000,-121.947000,21.695000,-2.916000,28.440000
3.806,0.697000,0.158000,0.569000,-107.427000,37.252000,-2.847000,28.530000
3.813,0.600000,0.193000,0.596000,-104.031000,44.076000,-6.214000,28.530000
3.825,0.566000,0.183000,0.583000,-103.992000,45.580000,-14.588000,28.480000
3.837,0.529000,0.186000,0.554000,-105.534000,37.260000,-15.679000,28.480000
3.844,0.604000,0.079000,0.522000,-102.618000,39.191000,-19.496000,28.440000
3.856,0.714000,0.036000,0.538000,-93.634000,51.015000,-13.649000,28.440000
3.864,0.633000,0.113000,0.637000,-93.496000,56.649000,-4.740000,28.440000
3.876,0.559000,0.076000,0.682000,-97.908000,54.649000,-4.290000,28.480000
3.883,0.506000,0.064000,0.656000,-92.290000,53.366000,-9.290000,28.390000
3.895,0.467000,0.034000,0.575000,-83.878000,52.099000,-18.328000,28.390000
3.908,0.504000,-0.068000,0.492000,-73.840000,45.817000,-24.977000,28.440000
3.914,0.497000,-0.071000,0.481000,-65.458000,46.664000,-37.351000,28.530000
3.927,0.453000,-0.072000,0.526000,-55.817000,35.298000,-35.511000,28.480000
3.933,0.563000,-0.112000,0.558000,-52.878000,40.450000,-38.046000,28.480000
3.946,0.725000,-0.137000,0.570000,-40.870000,67.183000,-34.443000,28.530000
3.952,0.671000,-0.085000,0.706000,-33.809000,86.160000,-30.786000,28.440000
3.966,0.561000,-0.033000,0.779000,-33.496000,88.313000,-25.702000,28.480000
3.977,0.510000,-0.037000,0.781000,-35.580000,84.901000,-20.687000,28.390000
3.984,0.436000,-0.047000,0.763000,-43.450000,76.710000,-15.779000,28.290000
3.996,0.386000,-0.099000,0.711000,-32.603000,58.931000,-17.412000,28.440000
4.003,0.329000,-0.132000,0.706000,-31.405000,35.076000,-14.313000,28.440000
4.017,0.455000,-0.179000,0.673000,-24.954000,34.939000,-17.656000,28.390000
4.024,0.555000,-0.170000,0.733000,-9.473000,43.565000,-14.771000,28.390000
4.035,0.640000,-0.242000,0.756000,7.779000,66.855000,-19.099000,28.480000
4.047,0.736000,-0.167000,0.885000,20.908000,101.267000,-23.305000,28.440000
4.054,0.618000,-0.040000,1.010000,27.504000,124.443000,-25.374000,28.440000
4.067,0.422000,0.054000,1.103000,18.809000,128.008000,-29.496000,28.390000
4.075,0.225000,0.128000,1.139000,-9.351000,127.817000,-37.160000,28.480000
4.086,0.089000,0.066000,1.093000,-36.511000,104.214000,-43.901000,28.390000
4.092,0.244000,-0.092000,0.975000,-41.702000,89.008000,-47.573000,28.390000
4.106,0.313000,-0.140000,0.911000,-29.557000,76.664000,-41.580000,28.530000
4.117,0.320000,-0.165000,0.906000,-16.137000,71.244000,-34.809000,28.390000
4.125,0.269000,-0.124000,0.909000,-7.511000,67.351000,-25.275000,28.390000
4.136,0.172000,-0.086000,0.954000,-6.015000,60.031000,-19.076000,28.480000
4.143,0.094000,-0.042000,0.948000,-15.107000,45.321000,-17.290000,28.340000
4.156,0.125000,-0.055000,0.922000,-22.939000,37.374000,-20.221000,28.440000
4.163,0.162000,-0.087000,0.898000,-26.931000,36.725000,-25.183000,28.480000
4.175,0.165000,-0.112000,0.888000,-22.527000,36.031000,-27.183000,28.390000
4.187,0.223000,-0.096000,0.875000,-21.252000,42.420000,-30.679000,28.390000
4.194,0.249000,-0.102000,0.903000,-17.992000,54.168000,-36.313000,28.340000
4.206,0.277000,-0.129000,0.899000,-13.603000,72.015000,-39.954000,28.440000
4.213,0.246000,-0.140000,0.892000,-8.954000,86.878000,-39.840000,28.290000
4.226,0.163000,-0.172000,0.912000,0.069000,93.229000,-36.901000,28.390000
4.232,0.064000,-0.118000,0.931000,-0.939000,86.809000,-28.656000,28.390000
4.245,0.004000,-0.070000,0.948000,-5.847000,79.000000,-27.282000,28.530000
4.258,-0.042000,-0.051000,0.933000,-17.534000,67.466000,-31.672000,28.530000
4.267,-0.048000,-0.086000,0.902000,-27.099000,54.908000,-39.267000,28.480000
4.276,-0.021000,-0.129000,0.885000,-30.260000,44.840000,-44.237000,28.390000
4.283,0.045000,-0.170000,0.854000,-22.282000,44.611000,-53.496000,28.390000
4.295,0.090000,-0.145000,0.889000,-13.504000,48.473000,-59.893000,28.390000
4.302,0.091000,-0.139000,0.909000,-7.328000,53.832000,-64.771000,28.440000
4.316,0.122000,-0.095000,0.917000,-10.557000,61.336000,-64.298000,28.480000
4.327,0.076000,-0.070000,0.940000,-22.420000,62.466000,-62.962000,28.390000
4.333,-0.002000,-0.068000,0.946000,-32.557000,53.420000,-58.588000,28.480000
4.346,-0.055000,-0.092000,0.906000,-42.313000,39.191000,-52.924000,28.530000
4.352,-0.039000,-0.151000,0.852000,-45.718000,24.863000,-52.740000,28.530000
4.365,0.035000,-0.191000,0.807000,-41.366000,16.359000,-51.611000,28.480000
4.378,0.098000,-0.229000,0.795000,-32.450000,17.359000,-52.626000,28.480000
4.384,0.140000,-0.228000,0.791000,-24.939000,25.443000,-54.443000,28.390000
4.396,0.143000,-0.229000,0.801000,-19.580000,36.015000,-51.267000,28.440000
4.403,0.081000,-0.193000,0.853000,-15.809000,41.221000,-47.656000,28.440000
4.417,0.005000,-0.154000,0.871000,-17.275000,36.931000,-42.046000,28.480000
4.422,-0.060000,-0.138000,0.884000,-23.870000,25.672000,-34.412000,28.390000
4.434,-0.080000,-0.157000,0.871000,-31.573000,11.962000,-32.733000,28.390000
4.447,-0.040000,-0.195000,0.843000,-31.672000,1.954000,-32.176000,28.440000
4.453,0.005000,-0.210000,0.825000,-27.122000,-3.046000,-30.977000,28.530000
4.467,0.021000,-0.225000,0.812000,-23.382000,-1.099000,-33.893000,28.390000
4.475,0.110000,-0.260000,0.804000,-16.168000,12.634000,-44.191000,28.390000
4.485,0.271000,-0.222000,0.825000,-7.397000,46.191000,-52.351000,28.390000
4.497,0.259000,-0.198000,0.855000,-2.061000,78.389000,-56.924000,28.340000
4.506,0.151000,-0.177000,0.887000,-4.809000,97.763000,-54.099000,28.440000
4.517,-0.013000,-0.162000,0.886000,-12.405000,101.565000,-50.023000,28.390000
4.524,-0.130000,-0.167000,0.861000,-18.191000,82.901000,-43.359000,28.480000
4.535,-0.176000,-0.199000,0.810000,-23.214000,52.099000,-32.763000,28.480000
4.542,-0.112000,-0.248000,0.805000,-23.198000,29.824000,-26.588000,28.440000
4.556,-0.034000,-0.250000,0.797000,-18.099000,19.298000,-24.977000,28.530000
4.567,0.005000,-0.275000,0.798000,-11.069000,16.840000,-22.260000,28.390000
4.575,0.032000,-0.237000,0.825000,-6.290000,22.847000,-19.649000,28.390000
4.586,0.078000,-0.218000,0.866000,-3.389000,40.000000,-23.008000,28.440000
4.593,0.081000,-0.195000,0.906000,-2.496000,60.267000,-23.718000,28.440000
4.606,-0.002000,-0.189000,0.920000,-7.412000,71.443000,-23.023000,28.440000
4.611,-0.094000,-0.183000,0.888000,-11.748000,70.718000,-17.588000,28.480000
4.625,-0.147000,-0.210000,0.863000,-15.145000,64.038000,-17.450000,28.480000
4.637,-0.173000,-0.224000,0.859000,-17.641000,49.557000,-14.534000,28.440000
4.643,-0.143000,-0.245000,0.838000,-17.221000,38.542000,-12.458000,28.440000
4.657,-0.078000,-0.269000,0.843000,-13.000000,37.527000,-12.244000,28.530000
4.663,-0.016000,-0.233000,0.872000,-13.031000,45.840000,-8.466000,28.480000
4.675,-0.043000,-0.251000,0.869000,-7.748000,57.748000,-8.756000,28.390000
4.687,-0.048000,-0.229000,0.887000,-7.412000,73.527000,-12.107000,28.290000
4.694,-0.101000,-0.244000,0.880000,-5.832000,83.229000,-14.374000,28.440000
4.706,-0.208000,-0.219000,0.834000,-6.832000,81.000000,-15.260000,28.440000
4.713,-0.248000,-0.245000,0.839000,-5.321000,71.748000,-11.847000,28.480000
4.725,-0.287000,-0.238000,0.828000,-5.893000,55.939000,-6.443000,28.480000
4.732,-0.312000,-0.265000,0.814000,-8.824000,35.550000,-0.855000,28.340000
4.745,-0.263000,-0.269000,0.817000,-9.557000,21.893000,4.107000,28.440000
