time_sec,ax,ay,az,gx,gy,gz,temp_c
0.013,0.580000,0.655000,0.502000,-3.260000,14.427000,-0.641000,28.110000
0.013,0.582000,0.690000,0.491000,-2.649000,13.496000,1.878000,28.110000
0.025,0.572000,0.690000,0.481000,-5.863000,16.191000,6.496000,28.060000
0.032,0.559000,0.680000,0.480000,-4.107000,10.366000,12.740000,28.060000
0.045,0.539000,0.670000,0.490000,-1.359000,6.466000,14.847000,28.150000
0.050,0.512000,0.662000,0.469000,0.084000,4.580000,15.069000,28.110000
0.065,0.497000,0.668000,0.462000,0.321000,3.527000,12.763000,28.110000
0.073,0.494000,0.672000,0.449000,1.771000,6.008000,8.870000,28.150000
0.085,0.501000,0.688000,0.445000,7.733000,10.168000,7.076000,28.060000
0.094,0.461000,0.707000,0.454000,13.198000,10.626000,7.969000,28.150000
0.105,0.330000,0.739000,0.462000,14.527000,1.504000,5.321000,28.110000
0.118,0.231000,0.757000,0.457000,15.672000,-14.000000,1.725000,28.110000
0.125,0.151000,0.785000,0.465000,11.977000,-35.237000,-7.519000,28.200000
0.137,0.155000,0.795000,0.469000,2.420000,-53.412000,-24.611000,28.060000
0.144,0.281000,0.777000,0.428000,-8.115000,-62.634000,-41.916000,28.150000
0.156,0.428000,0.769000,0.416000,-12.328000,-65.908000,-52.489000,28.110000
0.163,0.566000,0.752000,0.393000,-15.779000,-66.763000,-52.718000,28.110000
0.176,0.696000,0.689000,0.356000,-19.534000,-58.153000,-46.076000,28.150000
0.182,0.804000,0.653000,0.355000,-14.908000,-45.641000,-31.519000,28.150000
0.195,0.842000,0.629000,0.373000,-4.962000,-34.282000,-12.405000,28.150000
0.207,0.836000,0.608000,0.425000,5.954000,-22.038000,3.748000,28.200000
0.214,0.804000,0.639000,0.472000,14.038000,-11.344000,16.885000,28.110000
0.227,0.779000,0.644000,0.485000,15.809000,0.290000,26.504000,28.150000
0.234,0.723000,0.660000,0.498000,15.527000,14.145000,30.641000,28.150000
0.247,0.664000,0.685000,0.504000,13.687000,20.832000,31.450000,28.150000
0.254,0.616000,0.690000,0.475000,9.985000,25.412000,28.962000,28.200000
0.267,0.568000,0.718000,0.466000,2.779000,24.496000,24.168000,28.200000
0.274,0.529000,0.705000,0.449000,-6.366000,18.649000,16.649000,28.250000
0.287,0.559000,0.711000,0.443000,-10.992000,9.366000,7.718000,28.150000
0.293,0.633000,0.697000,0.431000,-13.489000,4.641000,2.916000,28.060000
0.306,0.718000,0.667000,0.401000,-13.527000,4.084000,2.000000,28.110000
0.313,0.786000,0.639000,0.374000,-9.206000,6.611000,4.985000,28.200000
0.326,0.818000,0.631000,0.362000,-1.290000,9.695000,10.489000,28.200000
0.335,0.823000,0.614000,0.379000,4.580000,12.733000,19.405000,28.060000
0.346,0.801000,0.642000,0.435000,13.198000,16.611000,25.489000,28.150000
0.353,0.732000,0.695000,0.481000,11.137000,18.504000,28.893000,28.200000
0.367,0.719000,0.697000,0.498000,10.359000,19.695000,30.389000,28.200000
0.374,0.681000,0.699000,0.504000,10.550000,17.466000,31.573000,28.250000
0.386,0.677000,0.686000,0.526000,9.061000,17.198000,29.733000,28.150000
0.391,0.688000,0.683000,0.527000,8.458000,19.794000,28.893000,28.200000
0.405,0.712000,0.673000,0.530000,7.618000,23.328000,30.626000,28.200000
0.419,0.711000,0.655000,0.534000,6.641000,28.412000,33.466000,28.060000
0.425,0.710000,0.675000,0.556000,6.649000,31.992000,36.160000,28.150000
0.438,0.692000,0.681000,0.548000,5.939000,32.366000,38.344000,28.250000
0.444,0.640000,0.662000,0.529000,2.412000,28.160000,38.641000,28.200000
0.457,0.654000,0.687000,0.519000,-4.389000,22.664000,36.756000,28.200000
0.464,0.693000,0.673000,0.511000,-6.878000,20.237000,36.244000,28.150000
0.477,0.720000,0.642000,0.499000,-5.595000,22.305000,36.183000,28.150000
0.485,0.726000,0.625000,0.485000,-5.290000,22.878000,36.702000,28.110000
0.497,0.705000,0.643000,0.471000,-4.908000,23.031000,36.847000,28.110000
0.503,0.678000,0.624000,0.465000,-3.496000,20.229000,35.962000,28.110000
0.517,0.664000,0.646000,0.465000,-4.313000,16.328000,33.527000,28.110000
0.524,0.656000,0.636000,0.451000,-3.168000,11.672000,30.489000,28.250000
0.536,0.654000,0.664000,0.469000,-0.145000,6.794000,28.244000,28.200000
0.543,0.693000,0.655000,0.476000,1.649000,7.305000,25.702000,28.110000
0.556,0.701000,0.653000,0.457000,1.313000,11.901000,24.847000,28.150000
0.563,0.735000,0.653000,0.450000,1.435000,16.992000,25.511000,28.250000
0.577,0.725000,0.653000,0.456000,5.107000,14.954000,33.260000,28.250000
0.583,0.681000,0.651000,0.474000,6.221000,10.863000,38.794000,28.110000
0.596,0.649000,0.670000,0.503000,9.069000,7.748000,41.786000,28.110000
0.603,0.624000,0.674000,0.530000,8.336000,0.099000,43.015000,28.150000
0.617,0.637000,0.656000,0.540000,5.290000,1.412000,40.221000,28.250000
0.624,0.665000,0.638000,0.535000,2.565000,5.122000,40.573000,28.200000
0.636,0.660000,0.633000,0.512000,0.366000,8.069000,40.053000,28.200000
0.643,0.660000,0.635000,0.513000,-2.893000,9.832000,37.115000,28.200000
0.655,0.685000,0.643000,0.535000,-7.351000,5.115000,38.794000,28.150000
0.663,0.684000,0.639000,0.526000,-14.382000,-1.351000,41.031000,28.150000
0.675,0.709000,0.608000,0.529000,-18.115000,-3.107000,37.527000,28.110000
0.688,0.746000,0.582000,0.526000,-16.718000,-9.183000,38.718000,28.110000
0.694,0.791000,0.557000,0.520000,-16.718000,-11.153000,37.748000,28.200000
0.707,0.858000,0.543000,0.500000,-16.809000,-8.336000,36.122000,28.150000
0.714,0.884000,0.524000,0.469000,-13.908000,-7.794000,37.519000,28.200000
0.728,0.899000,0.528000,0.473000,-10.092000,-5.237000,36.641000,28.200000
0.737,0.927000,0.556000,0.513000,-7.046000,-5.565000,40.008000,28.200000
0.746,0.920000,0.562000,0.533000,-7.214000,-8.473000,44.847000,28.250000
0.753,0.931000,0.533000,0.538000,-2.687000,-10.679000,48.290000,28.150000
0.767,0.930000,0.541000,0.556000,0.305000,-15.191000,55.206000,28.110000
0.774,0.929000,0.535000,0.567000,1.351000,-13.221000,58.435000,28.110000
0.786,0.913000,0.512000,0.588000,3.916000,-7.366000,59.618000,28.250000
0.792,0.906000,0.521000,0.595000,0.832000,0.618000,60.893000,28.150000
0.805,0.886000,0.495000,0.579000,-1.076000,8.435000,60.908000,28.150000
0.811,0.845000,0.517000,0.569000,-1.137000,9.282000,63.595000,28.110000
0.826,0.781000,0.546000,0.601000,-4.962000,6.664000,65.092000,28.110000
0.838,0.758000,0.562000,0.588000,-4.267000,-3.336000,68.969000,28.060000
0.844,0.735000,0.577000,0.643000,-7.092000,-12.183000,68.214000,28.060000
0.857,0.758000,0.561000,0.642000,-9.718000,-13.779000,64.115000,28.200000
0.864,0.835000,0.533000,0.610000,-12.939000,-7.450000,63.359000,28.110000
0.877,0.863000,0.520000,0.597000,-15.008000,0.908000,68.977000,28.200000
0.884,0.870000,0.515000,0.554000,-17.794000,10.618000,77.290000,28.150000
0.896,0.833000,0.505000,0.552000,-16.695000,17.740000,84.641000,28.150000
0.903,0.758000,0.503000,0.539000,-14.069000,21.824000,88.763000,28.200000
0.917,0.697000,0.468000,0.507000,-9.130000,24.473000,84.939000,28.200000
0.923,0.624000,0.474000,0.509000,-4.817000,21.374000,80.450000,28.150000
0.936,0.568000,0.493000,0.504000,-9.626000,15.153000,73.374000,28.150000
0.942,0.573000,0.470000,0.500000,-14.962000,8.924000,62.595000,28.110000
0.955,0.626000,0.471000,0.502000,-21.382000,4.870000,55.580000,28.110000
0.968,0.700000,0.473000,0.518000,-28.504000,6.817000,51.847000,28.150000
0.975,0.787000,0.445000,0.524000,-34.374000,14.260000,50.725000,28.150000
0.987,0.840000,0.430000,0.506000,-36.931000,20.069000,53.939000,28.150000
0.994,0.826000,0.408000,0.505000,-33.405000,16.420000,61.450000,28.110000
1.006,0.768000,0.400000,0.481000,-32.282000,4.618000,64.954000,28.200000
1.014,0.746000,0.379000,0.475000,-32.191000,-11.489000,62.580000,28.250000
1.027,0.761000,0.348000,0.476000,-32.084000,-21.924000,57.038000,28.150000
1.034,0.828000,0.348000,0.480000,-33.969000,-27.504000,51.214000,28.200000
1.046,0.896000,0.350000,0.461000,-32.489000,-22.473000,48.450000,28.200000
1.058,0.919000,0.371000,0.500000,-30.855000,-18.252000,50.008000,28.110000
1.065,0.929000,0.385000,0.490000,-31.817000,-13.748000,50.038000,28.110000
1.078,0.936000,0.341000,0.466000,-26.534000,-12.115000,49.450000,28.150000
1.085,0.937000,0.333000,0.460000,-21.496000,-12.908000,50.198000,28.110000
1.096,0.936000,0.319000,0.458000,-17.679000,-14.855000,49.847000,28.110000
1.103,0.948000,0.331000,0.463000,-14.092000,-15.176000,51.977000,28.150000
1.117,0.960000,0.341000,0.471000,-11.611000,-10.328000,53.550000,28.150000
1.124,0.976000,0.348000,0.478000,-9.519000,-1.527000,55.435000,28.150000
1.136,0.969000,0.316000,0.473000,-6.740000,4.435000,58.649000,28.200000
1.143,0.905000,0.291000,0.472000,-5.427000,5.641000,60.328000,28.200000
1.155,0.882000,0.293000,0.485000,-8.748000,0.069000,61.496000,28.150000
1.168,0.891000,0.262000,0.514000,-6.168000,-2.603000,62.290000,28.250000
1.175,0.899000,0.253000,0.546000,-2.649000,-4.160000,63.565000,28.110000
1.188,0.892000,0.265000,0.554000,-3.809000,-1.870000,67.511000,28.110000
1.195,0.875000,0.241000,0.549000,-5.901000,5.969000,67.565000,28.150000
1.207,0.879000,0.231000,0.559000,-4.901000,16.008000,63.580000,28.250000
1.214,0.832000,0.231000,0.531000,-5.214000,23.641000,62.214000,28.250000
1.228,0.792000,0.213000,0.538000,-4.496000,32.771000,58.588000,28.110000
1.234,0.745000,0.223000,0.548000,-3.695000,32.718000,57.198000,28.110000
1.246,0.701000,0.232000,0.548000,-2.962000,21.443000,60.359000,28.200000
1.253,0.703000,0.217000,0.580000,-5.473000,11.985000,61.893000,28.250000
1.267,0.723000,0.187000,0.590000,-8.267000,12.000000,58.443000,28.110000
1.274,0.736000,0.161000,0.590000,-9.015000,15.534000,54.450000,28.110000
1.286,0.751000,0.138000,0.582000,-10.267000,23.290000,52.847000,28.150000
1.293,0.699000,0.120000,0.570000,-12.229000,24.183000,50.985000,28.150000
1.305,0.650000,0.152000,0.573000,-15.489000,17.718000,46.420000,28.060000
1.319,0.652000,0.139000,0.546000,-17.687000,9.000000,41.092000,28.110000
1.325,0.694000,0.099000,0.554000,-15.695000,4.115000,35.107000,28.110000
1.338,0.751000,0.085000,0.546000,-13.397000,7.947000,31.092000,28.150000
1.344,0.759000,0.047000,0.507000,-10.611000,11.450000,28.061000,28.150000
1.357,0.742000,0.046000,0.499000,-5.168000,14.817000,23.458000,28.110000
1.364,0.724000,0.070000,0.520000,-1.237000,12.611000,19.534000,28.110000
1.378,0.713000,0.105000,0.546000,-1.649000,6.214000,18.008000,28.110000
1.384,0.709000,0.129000,0.574000,-4.359000,-1.313000,17.718000,28.150000
1.396,0.739000,0.141000,0.588000,-6.641000,-6.031000,17.183000,28.150000
1.404,0.772000,0.129000,0.601000,-7.015000,-5.580000,18.664000,28.110000
1.417,0.806000,0.068000,0.598000,-3.351000,4.458000,19.672000,28.110000
1.423,0.769000,0.052000,0.610000,-3.351000,9.137000,23.901000,28.200000
1.436,0.707000,0.034000,0.548000,-7.695000,9.252000,21.710000,28.060000
1.443,0.735000,0.052000,0.515000,-5.969000,11.954000,17.710000,28.200000
1.456,0.737000,0.043000,0.491000,-3.145000,13.550000,20.695000,28.110000
1.463,0.712000,0.048000,0.482000,1.595000,14.595000,20.802000,28.200000
1.476,0.688000,0.140000,0.515000,1.603000,13.282000,20.802000,28.150000
1.483,0.713000,0.104000,0.522000,0.534000,14.405000,17.763000,28.060000
1.495,0.744000,0.007000,0.501000,4.435000,18.115000,17.603000,28.200000
1.508,0.728000,-0.040000,0.506000,11.992000,22.908000,13.931000,28.110000
1.517,0.684000,-0.016000,0.516000,16.336000,20.069000,8.237000,28.150000
1.528,0.642000,-0.005000,0.537000,19.733000,12.359000,-0.351000,28.250000
1.535,0.648000,0.029000,0.579000,26.496000,3.542000,-6.748000,28.200000
1.547,0.681000,0.038000,0.597000,30.137000,-3.847000,-9.443000,28.110000
1.554,0.734000,0.052000,0.621000,31.275000,0.840000,-8.618000,28.150000
1.567,0.736000,0.037000,0.615000,30.076000,7.763000,-6.679000,28.250000
1.574,0.753000,0.049000,0.571000,26.160000,18.137000,-6.412000,28.150000
1.587,0.758000,0.043000,0.545000,22.229000,23.824000,-1.618000,28.200000
1.594,0.701000,0.024000,0.503000,19.519000,18.481000,1.145000,28.200000
1.606,0.676000,0.037000,0.480000,22.985000,0.908000,8.145000,28.200000
1.614,0.661000,0.076000,0.524000,25.779000,-9.275000,7.786000,28.150000
1.626,0.675000,0.092000,0.563000,24.695000,-13.374000,7.130000,28.110000
1.633,0.710000,0.064000,0.565000,25.267000,-7.290000,6.603000,28.110000
1.646,0.750000,0.068000,0.563000,22.519000,6.550000,6.443000,28.150000
1.653,0.783000,0.079000,0.542000,19.863000,23.664000,4.137000,28.150000
1.667,0.815000,0.078000,0.523000,11.313000,33.840000,10.908000,28.250000
1.673,0.807000,0.127000,0.518000,0.733000,40.969000,19.023000,28.110000
1.686,0.785000,0.079000,0.510000,-6.511000,46.992000,24.664000,28.200000
1.693,0.731000,0.062000,0.539000,-7.397000,50.679000,28.420000,28.250000
1.705,0.670000,0.035000,0.569000,-8.916000,53.450000,29.298000,28.060000
1.718,0.596000,-0.003000,0.593000,-8.870000,57.137000,24.382000,28.200000
1.725,0.598000,-0.013000,0.593000,-9.985000,66.809000,18.870000,28.110000
1.737,0.597000,-0.035000,0.542000,-20.328000,71.855000,12.840000,28.150000
1.744,0.581000,-0.023000,0.522000,-24.328000,66.718000,10.794000,28.150000
1.757,0.534000,0.006000,0.513000,-24.351000,54.588000,12.221000,28.060000
1.763,0.508000,-0.000000,0.500000,-27.092000,40.115000,13.198000,28.110000
1.777,0.546000,-0.027000,0.518000,-27.290000,32.015000,13.336000,28.200000
1.784,0.594000,-0.080000,0.527000,-26.580000,36.802000,12.450000,28.110000
1.795,0.571000,-0.105000,0.549000,-27.656000,37.542000,14.985000,28.150000
1.808,0.492000,-0.155000,0.479000,-24.359000,22.122000,21.458000,28.110000
1.817,0.480000,-0.098000,0.445000,-29.298000,4.382000,23.756000,28.200000
1.828,0.511000,-0.084000,0.425000,-28.519000,-7.466000,19.183000,28.200000
1.835,0.602000,-0.111000,0.444000,-18.710000,-4.885000,13.695000,28.150000
1.846,0.653000,-0.125000,0.493000,-9.099000,8.382000,13.053000,28.150000
1.853,0.634000,-0.152000,0.536000,-1.366000,23.611000,14.565000,28.200000
1.867,0.598000,-0.133000,0.583000,-5.878000,37.916000,16.168000,28.110000
1.873,0.477000,-0.131000,0.573000,-18.580000,37.901000,14.626000,28.150000
1.886,0.412000,-0.173000,0.487000,-22.344000,25.550000,13.931000,28.150000
1.898,0.395000,-0.154000,0.421000,-23.786000,9.160000,10.542000,28.200000
1.905,0.425000,-0.148000,0.427000,-15.237000,-3.145000,0.191000,28.110000
1.917,0.530000,-0.151000,0.438000,-1.947000,-2.863000,-8.763000,28.200000
1.924,0.567000,-0.193000,0.460000,9.298000,0.160000,-13.168000,28.150000
1.937,0.550000,-0.213000,0.482000,16.038000,1.168000,-16.000000,28.250000
1.944,0.554000,-0.223000,0.502000,19.634000,-1.275000,-14.748000,28.110000
1.956,0.514000,-0.199000,0.538000,20.214000,-11.626000,-12.084000,28.200000
1.963,0.526000,-0.125000,0.558000,17.656000,-20.939000,-12.771000,28.200000
1.975,0.550000,-0.083000,0.579000,16.718000,-28.802000,-14.786000,28.150000
1.988,0.627000,-0.058000,0.622000,18.298000,-29.359000,-14.756000,28.150000
1.994,0.690000,-0.083000,0.645000,16.496000,-17.603000,-15.489000,28.200000
2.007,0.740000,-0.121000,0.646000,10.107000,1.893000,-14.336000,28.200000
2.014,0.771000,-0.124000,0.615000,-2.649000,24.031000,-8.550000,28.150000
2.026,0.703000,-0.121000,0.573000,-13.931000,34.046000,-0.260000,28.150000
2.036,0.579000,-0.114000,0.531000,-18.275000,26.740000,4.718000,28.200000
2.046,0.483000,-0.123000,0.527000,-8.740000,6.244000,4.076000,28.110000
2.053,0.476000,-0.134000,0.591000,4.244000,-11.275000,0.718000,28.150000
2.067,0.493000,-0.131000,0.651000,11.305000,-15.962000,-5.351000,28.150000
2.078,0.505000,-0.123000,0.693000,13.084000,-16.290000,-10.206000,28.060000
2.085,0.578000,-0.111000,0.661000,2.817000,-7.771000,-10.321000,28.110000
2.097,0.638000,-0.113000,0.608000,-12.191000,3.405000,-8.992000,28.200000
2.104,0.656000,-0.113000,0.556000,-17.847000,11.076000,-8.107000,28.250000
2.117,0.640000,-0.101000,0.540000,-15.107000,15.824000,-5.580000,28.150000
2.124,0.588000,-0.099000,0.534000,-9.626000,12.542000,-3.366000,28.200000
2.136,0.523000,-0.100000,0.553000,-4.420000,7.794000,-5.031000,28.200000
2.143,0.485000,-0.120000,0.561000,-0.618000,4.840000,-12.519000,28.110000
2.156,0.513000,-0.136000,0.551000,1.611000,3.260000,-19.725000,28.150000
2.162,0.606000,-0.113000,0.512000,-0.725000,10.366000,-26.916000,28.250000
2.176,0.641000,-0.101000,0.484000,1.427000,8.427000,-29.786000,28.200000
2.188,0.650000,-0.075000,0.510000,8.481000,1.588000,-32.000000,28.200000
2.194,0.666000,-0.070000,0.552000,15.756000,-4.992000,-29.458000,28.250000
2.207,0.651000,-0.069000,0.617000,20.305000,-10.786000,-24.496000,28.150000
2.214,0.585000,-0.088000,0.687000,25.565000,-20.550000,-20.145000,28.110000
2.227,0.579000,-0.034000,0.727000,20.389000,-24.267000,-15.969000,28.110000
2.233,0.645000,0.008000,0.700000,1.107000,-12.588000,-14.748000,28.200000
2.245,0.757000,0.010000,0.594000,-18.244000,12.588000,-17.802000,28.150000
2.251,0.861000,0.010000,0.473000,-30.061000,41.908000,-20.076000,28.060000
2.265,0.828000,0.015000,0.382000,-29.290000,61.702000,-21.740000,28.110000
2.278,0.754000,0.005000,0.373000,-17.443000,64.221000,-22.603000,28.110000
2.286,0.648000,-0.021000,0.400000,-2.985000,54.863000,-21.710000,28.250000
2.297,0.556000,-0.087000,0.468000,13.992000,39.847000,-23.099000,28.250000
2.303,0.482000,-0.084000,0.577000,27.244000,23.916000,-20.000000,28.150000
2.317,0.448000,-0.054000,0.657000,31.206000,12.107000,-13.809000,28.200000
2.323,0.430000,-0.059000,0.645000,24.092000,-1.427000,-13.084000,28.110000
2.336,0.469000,-0.012000,0.623000,19.321000,-14.344000,-17.397000,28.110000
2.347,0.556000,0.022000,0.616000,20.122000,-17.908000,-21.794000,28.150000
2.354,0.634000,0.049000,0.618000,20.420000,-12.046000,-23.443000,28.150000
2.367,0.659000,0.077000,0.660000,18.656000,-5.191000,-20.137000,28.200000
2.375,0.624000,0.092000,0.690000,13.221000,3.176000,-15.168000,28.200000
2.387,0.562000,0.052000,0.715000,8.183000,9.718000,-11.252000,28.150000
2.394,0.470000,0.042000,0.744000,2.679000,11.084000,-7.893000,28.250000
2.406,0.457000,0.112000,0.697000,-11.802000,20.015000,-8.397000,28.200000
2.413,0.497000,0.104000,0.599000,-26.450000,32.328000,-11.962000,28.200000
2.427,0.577000,0.086000,0.501000,-31.145000,45.718000,-18.198000,28.200000
2.434,0.640000,0.074000,0.406000,-30.069000,61.557000,-23.473000,28.150000
2.445,0.628000,0.062000,0.357000,-20.863000,65.916000,-26.977000,28.150000
2.457,0.630000,0.023000,0.339000,-5.313000,65.145000,-26.466000,28.110000
2.464,0.560000,-0.020000,0.362000,13.878000,53.802000,-24.702000,28.110000
2.477,0.467000,0.004000,0.436000,30.435000,25.412000,-22.939000,28.150000
2.484,0.420000,0.049000,0.513000,39.885000,-5.656000,-24.198000,28.150000
2.496,0.460000,0.095000,0.596000,50.145000,-28.695000,-30.191000,28.060000
2.503,0.531000,0.122000,0.681000,68.992000,-43.679000,-35.420000,28.110000
2.516,0.635000,0.191000,0.764000,71.847000,-42.977000,-40.084000,28.200000
2.522,0.735000,0.198000,0.768000,67.580000,-35.122000,-39.466000,28.110000
2.535,0.810000,0.215000,0.770000,63.565000,-24.008000,-35.885000,28.150000
2.547,0.805000,0.216000,0.761000,54.573000,-12.321000,-31.122000,28.060000
2.554,0.802000,0.213000,0.751000,51.130000,-5.076000,-31.061000,28.200000
2.568,0.798000,0.239000,0.781000,51.053000,1.038000,-30.290000,28.200000
2.574,0.769000,0.264000,0.842000,47.740000,6.252000,-27.954000,28.150000
2.587,0.757000,0.267000,0.889000,43.611000,13.183000,-26.550000,28.150000
2.593,0.740000,0.241000,0.915000,43.580000,20.397000,-21.008000,28.290000
2.606,0.675000,0.280000,0.931000,37.687000,26.924000,-11.267000,28.200000
2.613,0.622000,0.300000,0.897000,26.489000,28.450000,-3.015000,28.200000
2.626,0.640000,0.271000,0.853000,17.924000,35.847000,-1.160000,28.250000
2.633,0.665000,0.229000,0.796000,12.992000,47.344000,-3.885000,28.150000
2.645,0.634000,0.243000,0.760000,10.679000,52.473000,-5.733000,28.110000
2.658,0.609000,0.227000,0.723000,12.405000,50.237000,-6.969000,28.110000
2.666,0.573000,0.178000,0.685000,19.771000,46.130000,-6.214000,28.200000
2.677,0.508000,0.166000,0.730000,29.450000,38.595000,0.626000,28.150000
2.685,0.349000,0.300000,0.737000,27.046000,20.924000,10.115000,28.250000
2.697,0.251000,0.288000,0.705000,24.580000,0.122000,4.145000,28.200000
2.704,0.336000,0.295000,0.705000,26.870000,-7.626000,-8.809000,28.200000
2.718,0.439000,0.281000,0.704000,25.176000,-6.321000,-17.328000,28.200000
2.725,0.523000,0.265000,0.688000,24.374000,-1.832000,-25.115000,28.200000
2.737,0.613000,0.261000,0.676000,29.031000,0.817000,-26.160000,28.250000
2.744,0.636000,0.266000,0.677000,30.603000,4.168000,-26.496000,28.150000
2.756,0.620000,0.288000,0.715000,32.435000,9.748000,-23.779000,28.110000
2.763,0.557000,0.349000,0.753000,30.969000,11.183000,-16.489000,28.200000
2.776,0.476000,0.330000,0.757000,29.160000,5.298000,-11.824000,28.150000
2.783,0.451000,0.366000,0.777000,28.489000,-5.130000,-9.107000,28.150000
2.795,0.496000,0.355000,0.770000,18.359000,-6.481000,-8.130000,28.250000
2.801,0.557000,0.326000,0.731000,13.130000,-4.420000,-8.145000,28.200000
2.817,0.604000,0.315000,0.690000,10.931000,4.458000,-7.855000,28.110000
2.828,0.625000,0.309000,0.651000,10.550000,16.069000,-6.031000,28.150000
2.835,0.592000,0.297000,0.621000,14.168000,23.336000,-0.275000,28.250000
2.847,0.512000,0.398000,0.626000,15.405000,23.962000,9.595000,28.150000
2.855,0.383000,0.384000,0.594000,14.672000,10.626000,7.214000,28.200000
2.868,0.372000,0.315000,0.576000,24.687000,-2.344000,-4.344000,28.110000
2.875,0.456000,0.326000,0.596000,32.679000,-2.550000,-14.214000,28.150000
2.887,0.519000,0.305000,0.632000,38.916000,0.275000,-24.023000,28.060000
2.894,0.578000,0.309000,0.630000,39.763000,5.901000,-32.962000,28.250000
2.906,0.629000,0.317000,0.635000,45.656000,8.611000,-36.038000,28.200000
2.913,0.647000,0.340000,0.666000,50.832000,8.748000,-36.748000,28.200000
2.926,0.616000,0.441000,0.744000,57.359000,8.015000,-31.412000,28.200000
2.934,0.549000,0.485000,0.783000,52.313000,-0.656000,-29.031000,28.150000
2.946,0.566000,0.458000,0.803000,57.229000,-14.206000,-24.275000,28.150000
2.957,0.580000,0.457000,0.839000,53.863000,-18.107000,-28.038000,28.200000
2.964,0.621000,0.416000,0.824000,55.023000,-18.237000,-36.031000,28.110000
2.978,0.664000,0.393000,0.824000,57.313000,-15.718000,-39.634000,28.110000
2.985,0.647000,0.416000,0.820000,56.321000,-15.267000,-40.412000,28.150000
2.996,0.624000,0.430000,0.823000,53.718000,-15.099000,-39.527000,28.250000
3.003,0.583000,0.477000,0.841000,53.061000,-19.611000,-34.023000,28.200000
3.016,0.542000,0.512000,0.817000,44.893000,-24.267000,-33.305000,28.200000
3.023,0.594000,0.426000,0.746000,47.687000,-24.710000,-35.008000,28.110000
3.035,0.661000,0.439000,0.720000,53.099000,-20.221000,-38.069000,28.150000
3.047,0.667000,0.471000,0.718000,51.931000,-11.031000,-37.542000,28.150000
3.054,0.653000,0.435000,0.671000,55.855000,-8.282000,-35.962000,28.200000
3.067,0.604000,0.450000,0.655000,61.031000,-8.977000,-34.489000,28.200000
3.075,0.532000,0.473000,0.670000,68.397000,-12.962000,-29.565000,28.290000
3.086,0.395000,0.499000,0.708000,75.031000,-26.695000,-22.389000,28.150000
3.093,0.240000,0.671000,0.820000,68.092000,-59.237000,-14.214000,28.250000
3.106,0.170000,0.670000,0.780000,51.939000,-95.160000,-23.466000,28.250000
3.111,0.287000,0.588000,0.762000,46.992000,-117.588000,-38.298000,28.200000
3.125,0.426000,0.627000,0.780000,39.260000,-122.267000,-46.221000,28.110000
3.137,0.567000,0.596000,0.739000,30.038000,-111.275000,-48.237000,28.110000
3.144,0.673000,0.603000,0.690000,18.969000,-86.679000,-44.489000,28.250000
3.156,0.719000,0.604000,0.653000,11.290000,-59.389000,-36.489000,28.150000
3.164,0.694000,0.640000,0.632000,6.397000,-35.885000,-29.351000,28.200000
3.177,0.633000,0.683000,0.616000,1.153000,-26.290000,-17.817000,28.200000
3.183,0.539000,0.609000,0.552000,3.748000,-33.435000,-15.168000,28.060000
3.195,0.530000,0.607000,0.545000,9.427000,-39.695000,-22.962000,28.250000
3.208,0.561000,0.642000,0.586000,8.695000,-34.779000,-30.977000,28.150000
3.217,0.599000,0.633000,0.591000,8.504000,-21.588000,-40.969000,28.200000
3.227,0.679000,0.635000,0.539000,6.008000,-2.992000,-49.282000,28.200000
3.235,0.717000,0.616000,0.490000,8.031000,14.290000,-50.710000,28.200000
3.247,0.709000,0.597000,0.478000,18.305000,20.435000,-46.969000,28.250000
3.254,0.606000,0.692000,0.542000,21.389000,9.153000,-39.206000,28.250000
3.267,0.528000,0.688000,0.557000,19.855000,-10.542000,-42.359000,28.200000
3.274,0.534000,0.641000,0.554000,30.344000,-27.382000,-51.962000,28.110000
3.286,0.548000,0.656000,0.610000,36.366000,-41.038000,-56.305000,28.200000
3.292,0.575000,0.664000,0.661000,37.893000,-42.855000,-57.573000,28.250000
3.305,0.574000,0.650000,0.682000,34.069000,-44.076000,-54.351000,28.250000
3.318,0.588000,0.667000,0.699000,26.221000,-40.794000,-45.168000,28.110000
3.326,0.574000,0.665000,0.678000,16.008000,-34.244000,-37.763000,28.200000
3.337,0.548000,0.781000,0.721000,3.901000,-35.046000,-26.809000,28.200000
3.343,0.495000,0.834000,0.681000,-16.580000,-43.031000,-22.977000,28.200000
3.356,0.558000,0.731000,0.588000,-23.221000,-43.130000,-37.939000,28.250000
3.363,0.635000,0.673000,0.576000,-18.489000,-39.618000,-51.885000,28.110000
3.375,0.662000,0.662000,0.558000,-11.656000,-37.710000,-64.908000,28.200000
3.387,0.720000,0.651000,0.552000,-7.588000,-32.420000,-76.809000,28.110000
3.394,0.783000,0.650000,0.525000,-4.824000,-27.282000,-79.237000,28.060000
3.407,0.825000,0.612000,0.481000,6.748000,-19.008000,-71.008000,28.150000
3.414,0.812000,0.595000,0.504000,19.389000,-16.748000,-57.855000,28.200000
3.426,0.730000,0.631000,0.532000,27.206000,-18.939000,-37.099000,28.200000
3.433,0.632000,0.681000,0.589000,30.214000,-22.992000,-17.519000,28.200000
3.446,0.506000,0.796000,0.643000,22.305000,-25.443000,-3.229000,28.250000
3.452,0.410000,0.795000,0.621000,13.664000,-22.527000,-4.542000,28.250000
3.466,0.375000,0.761000,0.580000,11.847000,-21.092000,-13.008000,28.200000
3.477,0.387000,0.744000,0.584000,9.450000,-19.176000,-18.802000,28.110000
3.485,0.372000,0.729000,0.582000,1.977000,-19.336000,-22.382000,28.200000
3.497,0.376000,0.767000,0.573000,-11.679000,-20.748000,-23.481000,28.250000
3.504,0.390000,0.771000,0.545000,-22.977000,-17.130000,-21.053000,28.250000
3.517,0.390000,0.723000,0.486000,-24.466000,-13.137000,-16.916000,28.110000
3.523,0.372000,0.768000,0.513000,-24.130000,-18.092000,-8.618000,28.110000
3.536,0.313000,0.810000,0.505000,-33.313000,-22.084000,-7.580000,28.110000
3.548,0.349000,0.781000,0.450000,-39.443000,-17.977000,-17.382000,28.200000
3.554,0.434000,0.805000,0.444000,-43.473000,-6.611000,-25.046000,28.250000
3.567,0.494000,0.788000,0.412000,-50.176000,6.656000,-26.901000,28.200000
3.574,0.535000,0.718000,0.329000,-49.290000,22.550000,-29.351000,28.200000
3.587,0.549000,0.674000,0.257000,-37.137000,28.534000,-27.031000,28.200000
3.593,0.524000,0.640000,0.248000,-24.878000,28.008000,-23.015000,28.150000
3.606,0.487000,0.670000,0.307000,-16.084000,19.977000,-19.534000,28.150000
3.612,0.468000,0.725000,0.377000,-14.221000,10.046000,-11.588000,28.200000
3.625,0.425000,0.744000,0.419000,-16.672000,-2.092000,-5.740000,28.110000
3.637,0.390000,0.788000,0.482000,-20.382000,-16.939000,-3.305000,28.200000
3.644,0.419000,0.813000,0.510000,-25.672000,-25.786000,-9.076000,28.150000
3.657,0.461000,0.782000,0.516000,-28.053000,-30.122000,-14.504000,28.250000
3.664,0.518000,0.776000,0.515000,-32.107000,-29.450000,-21.198000,28.110000
3.676,0.567000,0.761000,0.514000,-37.015000,-29.313000,-22.031000,28.200000
3.684,0.618000,0.730000,0.495000,-42.557000,-23.092000,-20.779000,28.110000
3.695,0.625000,0.712000,0.457000,-44.832000,-17.366000,-18.038000,28.150000
3.707,0.616000,0.731000,0.429000,-44.244000,-14.160000,-13.160000,28.150000
3.714,0.597000,0.750000,0.414000,-43.282000,-8.366000,-8.504000,28.290000
3.727,0.609000,0.804000,0.404000,-46.008000,-2.168000,-2.305000,28.200000
3.735,0.619000,0.771000,0.361000,-42.137000,-1.924000,7.313000,28.200000
3.747,0.570000,0.707000,0.311000,-36.756000,-0.588000,6.214000,28.200000
3.753,0.553000,0.690000,0.308000,-24.916000,-4.198000,-0.893000,28.150000
3.767,0.567000,0.690000,0.332000,-12.679000,-9.267000,-8.527000,28.200000
3.774,0.589000,0.662000,0.369000,-7.084000,-11.511000,-15.740000,28.200000
3.786,0.632000,0.624000,0.403000,-1.725000,-6.779000,-22.107000,28.200000
3.792,0.665000,0.595000,0.419000,4.664000,-0.153000,-23.580000,28.250000
3.805,0.650000,0.662000,0.447000,4.992000,-2.595000,-24.725000,28.250000
3.817,0.659000,0.715000,0.513000,4.573000,-0.580000,-27.115000,28.200000
3.826,0.699000,0.729000,0.558000,-0.145000,-0.412000,-25.221000,28.110000
3.837,0.690000,0.656000,0.553000,-3.015000,2.481000,-21.076000,28.290000
3.844,0.672000,0.644000,0.564000,5.267000,1.573000,-16.198000,28.150000
3.857,0.635000,0.656000,0.573000,11.634000,-4.107000,-7.534000,28.060000
3.864,0.607000,0.690000,0.611000,11.412000,-6.359000,-2.481000,28.250000
3.877,0.601000,0.732000,0.629000,5.160000,-7.084000,1.672000,28.200000
3.885,0.573000,0.723000,0.613000,0.817000,0.496000,1.748000,28.200000
3.897,0.545000,0.731000,0.583000,-3.779000,6.618000,1.313000,28.250000
3.904,0.512000,0.692000,0.531000,-4.466000,9.069000,-3.122000,28.150000
3.917,0.518000,0.661000,0.492000,1.733000,9.855000,-8.405000,28.250000
3.925,0.524000,0.655000,0.451000,7.359000,11.519000,-14.931000,28.200000
3.936,0.528000,0.673000,0.430000,11.779000,11.878000,-16.954000,28.200000
3.943,0.528000,0.717000,0.452000,11.176000,12.427000,-20.580000,28.200000
3.956,0.554000,0.682000,0.435000,11.290000,13.282000,-21.908000,28.150000
3.963,0.608000,0.665000,0.418000,18.275000,19.168000,-22.038000,28.150000
3.977,0.599000,0.648000,0.385000,23.031000,16.893000,-19.550000,28.200000
3.988,0.582000,0.634000,0.373000,33.855000,13.427000,-16.969000,28.200000
3.994,0.562000,0.662000,0.420000,46.374000,11.733000,-16.817000,28.250000
4.007,0.558000,0.695000,0.500000,54.885000,13.237000,-17.252000,28.150000
4.014,0.580000,0.744000,0.567000,57.931000,24.244000,-14.641000,28.250000
4.028,0.541000,0.789000,0.641000,55.832000,32.267000,-9.855000,28.290000
4.036,0.489000,0.777000,0.657000,48.412000,34.977000,-9.198000,28.290000
4.046,0.436000,0.766000,0.677000,40.092000,34.450000,-12.321000,28.150000
4.053,0.386000,0.750000,0.691000,34.053000,26.298000,-19.053000,28.340000
4.067,0.405000,0.738000,0.675000,26.183000,17.473000,-24.542000,28.150000
4.074,0.427000,0.728000,0.614000,17.000000,11.901000,-28.855000,28.110000
4.087,0.438000,0.715000,0.566000,12.351000,5.267000,-28.992000,28.200000
4.091,0.450000,0.727000,0.539000,11.244000,-6.504000,-26.206000,28.250000
4.105,0.477000,0.744000,0.532000,6.328000,-12.641000,-25.168000,28.250000
4.118,0.503000,0.752000,0.536000,4.137000,-13.908000,-26.420000,28.250000
4.125,0.529000,0.729000,0.516000,6.687000,-13.038000,-26.122000,28.290000
4.137,0.561000,0.723000,0.476000,9.580000,-5.244000,-25.771000,28.200000
4.144,0.564000,0.744000,0.477000,9.733000,-1.588000,-21.489000,28.200000
4.156,0.538000,0.772000,0.460000,12.053000,-2.969000,-14.473000,28.250000
4.164,0.549000,0.777000,0.438000,13.382000,5.168000,-10.733000,28.250000
4.177,0.552000,0.779000,0.458000,18.702000,17.336000,-2.718000,28.200000
4.184,0.491000,0.782000,0.493000,21.221000,26.382000,4.664000,28.200000
4.196,0.408000,0.772000,0.498000,21.870000,32.023000,5.802000,28.150000
4.203,0.363000,0.770000,0.508000,20.824000,34.786000,2.397000,28.150000
4.218,0.303000,0.760000,0.509000,17.511000,28.863000,-3.832000,28.250000
4.224,0.288000,0.761000,0.517000,10.664000,20.565000,-12.687000,28.200000
4.235,0.337000,0.779000,0.512000,7.924000,7.527000,-11.809000,28.290000
4.242,0.384000,0.813000,0.539000,-5.870000,-1.588000,-13.725000,28.250000
4.255,0.490000,0.787000,0.498000,-14.634000,0.626000,-11.229000,28.250000
4.269,0.511000,0.795000,0.452000,-15.160000,3.519000,-0.908000,28.200000
4.275,0.467000,0.795000,0.432000,-14.191000,1.000000,6.344000,28.200000
4.287,0.427000,0.776000,0.416000,-8.634000,-0.580000,6.176000,28.200000
4.294,0.390000,0.791000,0.427000,-2.313000,-3.076000,3.183000,28.250000
4.307,0.377000,0.777000,0.442000,4.565000,1.519000,-0.885000,28.150000
4.314,0.365000,0.762000,0.453000,14.145000,-1.115000,2.893000,28.200000
4.327,0.384000,0.748000,0.475000,15.458000,6.260000,4.313000,28.110000
4.334,0.350000,0.782000,0.525000,13.435000,12.763000,9.031000,28.200000
4.347,0.290000,0.805000,0.521000,7.382000,17.481000,9.908000,28.200000
4.354,0.244000,0.790000,0.503000,-1.954000,18.672000,4.481000,28.150000
4.367,0.241000,0.789000,0.463000,-8.786000,14.092000,-4.733000,28.200000
4.374,0.267000,0.788000,0.420000,-11.466000,8.924000,-14.969000,28.200000
4.387,0.303000,0.756000,0.374000,-3.008000,3.580000,-17.824000,28.290000
4.393,0.305000,0.781000,0.403000,-2.588000,-3.168000,-19.008000,28.150000
4.415,0.290000,0.792000,0.419000,-2.977000,-10.962000,-19.817000,28.340000
4.416,0.297000,0.781000,0.415000,0.053000,-13.908000,-23.023000,28.200000
