time_sec,ax,ay,az,gx,gy,gz,temp_c
0.016,0.221000,0.829000,0.404000,3.840000,22.954000,16.145000,29.050000
0.020,0.226000,0.826000,0.414000,2.366000,22.389000,14.328000,28.950000
0.032,0.231000,0.822000,0.405000,0.679000,21.130000,11.519000,29.000000
0.040,0.251000,0.827000,0.409000,0.931000,20.000000,9.176000,29.000000
0.052,0.261000,0.820000,0.404000,4.046000,18.511000,8.260000,28.950000
0.060,0.247000,0.841000,0.404000,4.130000,15.573000,7.618000,28.950000
0.072,0.294000,0.837000,0.413000,4.221000,13.672000,6.924000,28.950000
0.080,0.317000,0.852000,0.408000,3.321000,12.397000,11.878000,28.910000
0.093,0.315000,0.864000,0.443000,4.015000,13.473000,12.145000,29.090000
0.106,0.317000,0.870000,0.439000,4.496000,15.527000,12.084000,28.950000
0.112,0.331000,0.893000,0.459000,3.893000,15.908000,11.305000,28.950000
0.125,0.400000,0.910000,0.435000,0.389000,23.496000,10.992000,28.950000
0.132,0.444000,0.915000,0.449000,-4.137000,32.214000,13.687000,28.810000
0.144,0.453000,0.905000,0.460000,-2.908000,42.229000,19.466000,29.000000
0.151,0.444000,0.934000,0.429000,-1.763000,50.878000,28.595000,28.950000
0.164,0.331000,0.868000,0.406000,2.702000,47.847000,33.214000,28.860000
0.171,0.254000,0.824000,0.348000,3.046000,42.099000,26.618000,28.950000
0.184,0.216000,0.819000,0.337000,1.802000,35.023000,15.840000,28.910000
0.192,0.219000,0.807000,0.336000,-1.649000,23.069000,6.053000,28.910000
0.204,0.252000,0.818000,0.342000,-8.176000,5.115000,-4.740000,28.950000
0.211,0.376000,0.835000,0.362000,-15.053000,-10.733000,-11.244000,28.950000
0.223,0.502000,0.822000,0.348000,-18.359000,-18.397000,-11.847000,29.000000
0.231,0.605000,0.805000,0.336000,-14.878000,-14.939000,-7.229000,29.000000
0.243,0.662000,0.801000,0.321000,-11.374000,-5.908000,2.878000,28.910000
0.248,0.689000,0.775000,0.294000,-3.046000,9.351000,15.382000,28.950000
0.262,0.646000,0.778000,0.313000,5.710000,17.550000,27.435000,28.950000
0.275,0.591000,0.778000,0.338000,15.504000,23.573000,37.817000,29.000000
0.282,0.498000,0.807000,0.376000,23.450000,26.237000,44.740000,28.910000
0.294,0.439000,0.837000,0.453000,28.267000,27.519000,46.992000,28.950000
0.301,0.420000,0.860000,0.500000,31.924000,29.153000,45.977000,28.950000
0.314,0.397000,0.872000,0.551000,28.580000,32.366000,44.641000,29.050000
0.323,0.410000,0.863000,0.561000,26.183000,37.267000,43.527000,29.000000
0.334,0.389000,0.844000,0.555000,21.771000,40.939000,40.725000,28.910000
0.341,0.385000,0.830000,0.545000,18.725000,39.313000,39.061000,29.050000
0.353,0.384000,0.805000,0.552000,15.076000,34.580000,37.947000,29.050000
0.360,0.414000,0.793000,0.538000,16.565000,34.382000,36.603000,29.050000
0.374,0.413000,0.801000,0.540000,14.924000,30.489000,37.847000,29.000000
0.381,0.420000,0.770000,0.506000,10.656000,20.885000,41.878000,29.000000
0.393,0.422000,0.792000,0.526000,12.198000,10.588000,43.336000,28.950000
0.400,0.436000,0.768000,0.528000,18.565000,3.756000,43.504000,28.950000
0.413,0.458000,0.797000,0.535000,25.374000,-0.802000,42.115000,28.910000
0.418,0.502000,0.802000,0.561000,29.313000,-2.664000,39.511000,29.000000
0.432,0.502000,0.839000,0.585000,30.947000,-0.244000,41.855000,28.950000
0.445,0.527000,0.859000,0.617000,29.229000,4.740000,46.260000,29.050000
0.452,0.531000,0.890000,0.582000,18.824000,12.733000,51.840000,28.950000
0.464,0.498000,0.891000,0.580000,-0.863000,19.649000,56.496000,28.910000
0.474,0.460000,0.866000,0.538000,-13.366000,17.305000,56.878000,29.000000
0.484,0.469000,0.844000,0.489000,-15.550000,11.527000,53.359000,28.950000
0.492,0.462000,0.831000,0.437000,-9.321000,10.244000,47.542000,28.950000
0.504,0.469000,0.837000,0.400000,-2.115000,0.366000,44.679000,28.910000
0.511,0.457000,0.877000,0.428000,0.198000,-13.786000,45.893000,28.910000
0.523,0.449000,0.867000,0.426000,0.252000,-21.908000,41.153000,28.950000
0.532,0.506000,0.882000,0.445000,0.290000,-23.931000,35.924000,28.950000
0.543,0.544000,0.889000,0.446000,1.076000,-27.756000,34.168000,28.950000
0.551,0.585000,0.865000,0.442000,1.443000,-30.863000,33.504000,28.950000
0.563,0.608000,0.839000,0.439000,3.786000,-30.374000,34.046000,28.910000
0.570,0.642000,0.839000,0.450000,8.130000,-30.130000,37.351000,28.950000
0.582,0.632000,0.836000,0.438000,9.924000,-29.069000,41.122000,28.950000
0.595,0.609000,0.878000,0.447000,10.794000,-27.160000,45.366000,28.910000
0.602,0.594000,0.892000,0.438000,7.053000,-25.954000,46.031000,29.000000
0.614,0.613000,0.912000,0.421000,2.977000,-21.580000,47.771000,28.860000
0.622,0.639000,0.902000,0.401000,2.977000,-19.450000,48.718000,28.950000
0.634,0.668000,0.856000,0.377000,3.901000,-13.107000,49.298000,29.050000
0.642,0.688000,0.845000,0.372000,3.626000,-8.847000,49.885000,28.910000
0.654,0.698000,0.829000,0.376000,3.550000,-7.496000,50.214000,29.000000
0.661,0.713000,0.810000,0.351000,1.153000,-0.908000,47.656000,28.950000
0.674,0.731000,0.818000,0.328000,3.420000,3.962000,53.595000,28.950000
0.681,0.726000,0.797000,0.330000,5.740000,7.053000,59.176000,28.910000
0.694,0.706000,0.811000,0.338000,5.305000,7.511000,64.038000,29.000000
0.701,0.714000,0.827000,0.347000,4.328000,8.817000,67.656000,28.910000
0.714,0.701000,0.812000,0.337000,2.557000,9.221000,70.122000,29.050000
0.721,0.715000,0.798000,0.318000,4.214000,15.924000,70.504000,28.950000
0.734,0.701000,0.806000,0.326000,5.817000,15.702000,74.550000,28.950000
0.741,0.658000,0.779000,0.313000,9.969000,15.733000,77.160000,29.000000
0.753,0.619000,0.790000,0.333000,11.702000,14.420000,77.573000,28.860000
0.761,0.607000,0.810000,0.361000,9.611000,13.137000,79.099000,28.950000
0.775,0.604000,0.806000,0.386000,6.824000,15.725000,77.092000,28.950000
0.781,0.609000,0.827000,0.411000,2.244000,15.527000,73.511000,28.910000
0.793,0.621000,0.797000,0.407000,0.916000,20.191000,68.565000,29.000000
0.800,0.655000,0.769000,0.375000,-3.382000,20.618000,62.458000,29.050000
0.813,0.706000,0.768000,0.375000,-3.038000,19.328000,61.550000,28.950000
0.820,0.736000,0.771000,0.406000,-1.275000,22.137000,64.656000,28.910000
0.834,0.736000,0.758000,0.386000,2.947000,26.702000,69.824000,28.910000
0.841,0.728000,0.757000,0.414000,5.542000,30.878000,72.786000,28.910000
0.852,0.677000,0.746000,0.424000,6.374000,31.473000,76.595000,28.860000
0.865,0.695000,0.689000,0.411000,11.008000,35.405000,74.763000,28.950000
0.874,0.675000,0.689000,0.420000,7.359000,28.687000,74.122000,29.000000
0.885,0.669000,0.678000,0.430000,5.809000,26.008000,71.351000,28.910000
0.892,0.688000,0.699000,0.438000,2.374000,24.458000,66.099000,28.950000
0.905,0.735000,0.688000,0.442000,3.008000,29.947000,62.710000,28.950000
0.912,0.770000,0.639000,0.440000,7.366000,35.351000,62.679000,28.860000
0.925,0.799000,0.628000,0.456000,9.733000,43.618000,63.733000,28.810000
0.932,0.805000,0.586000,0.437000,13.679000,48.748000,67.122000,28.910000
0.944,0.772000,0.585000,0.462000,15.695000,50.847000,70.710000,29.050000
0.951,0.721000,0.601000,0.468000,15.321000,50.580000,75.046000,28.950000
0.964,0.630000,0.598000,0.501000,17.786000,44.443000,74.794000,28.910000
0.971,0.544000,0.633000,0.562000,15.840000,37.015000,65.855000,28.910000
0.983,0.516000,0.643000,0.589000,11.924000,30.313000,49.313000,28.950000
0.991,0.543000,0.620000,0.604000,8.038000,24.847000,34.290000,28.860000
1.003,0.549000,0.612000,0.601000,5.916000,19.351000,26.473000,28.950000
1.010,0.605000,0.620000,0.586000,0.863000,11.740000,20.061000,28.910000
1.023,0.632000,0.640000,0.591000,-4.817000,2.008000,18.931000,29.000000
1.030,0.707000,0.643000,0.594000,-12.008000,-2.237000,17.939000,28.950000
1.043,0.797000,0.640000,0.603000,-17.237000,-3.328000,23.153000,28.950000
1.055,0.852000,0.637000,0.605000,-17.672000,-0.489000,31.802000,28.910000
1.062,0.884000,0.638000,0.643000,-17.626000,4.626000,44.313000,28.910000
1.076,0.904000,0.646000,0.657000,-21.015000,15.527000,59.374000,28.910000
1.082,0.867000,0.644000,0.647000,-25.580000,27.206000,74.618000,29.050000
1.094,0.780000,0.642000,0.611000,-31.153000,31.305000,91.969000,29.050000
1.101,0.698000,0.606000,0.582000,-33.496000,33.664000,98.153000,28.860000
1.113,0.602000,0.613000,0.566000,-33.405000,28.878000,96.794000,29.000000
1.120,0.553000,0.582000,0.545000,-34.275000,25.588000,94.725000,28.770000
1.135,0.536000,0.537000,0.523000,-33.664000,21.595000,89.221000,28.950000
1.140,0.544000,0.554000,0.504000,-39.183000,13.710000,85.504000,28.910000
1.153,0.561000,0.517000,0.485000,-39.870000,12.115000,79.267000,28.910000
1.165,0.593000,0.490000,0.468000,-39.313000,14.336000,75.267000,28.810000
1.173,0.601000,0.440000,0.433000,-36.664000,15.290000,68.962000,28.950000
1.184,0.636000,0.425000,0.407000,-32.527000,15.214000,63.939000,28.950000
1.192,0.676000,0.424000,0.405000,-29.573000,12.145000,54.420000,28.910000
1.204,0.729000,0.416000,0.409000,-23.992000,15.290000,50.802000,29.000000
1.211,0.748000,0.430000,0.428000,-18.603000,10.878000,55.702000,28.950000
1.224,0.755000,0.448000,0.496000,-16.260000,7.519000,60.092000,28.860000
1.234,0.766000,0.430000,0.511000,-16.252000,7.939000,65.344000,28.860000
1.244,0.749000,0.403000,0.519000,-15.588000,7.863000,68.786000,28.910000
1.251,0.742000,0.387000,0.509000,-18.519000,11.244000,67.458000,28.910000
1.263,0.727000,0.363000,0.500000,-17.496000,14.954000,67.840000,28.950000
1.270,0.720000,0.351000,0.490000,-17.527000,17.985000,64.565000,28.950000
1.283,0.709000,0.379000,0.502000,-18.252000,16.496000,64.107000,29.050000
1.295,0.653000,0.357000,0.518000,-13.893000,16.145000,60.137000,28.910000
1.301,0.643000,0.370000,0.555000,-12.908000,12.931000,57.099000,29.000000
1.314,0.641000,0.340000,0.551000,-15.214000,12.344000,56.282000,28.860000
1.321,0.653000,0.298000,0.529000,-13.137000,15.244000,53.061000,28.950000
1.334,0.662000,0.293000,0.539000,-10.977000,12.550000,55.244000,28.910000
1.341,0.662000,0.288000,0.534000,-8.580000,13.420000,49.672000,28.910000
1.354,0.671000,0.299000,0.539000,-9.321000,10.718000,42.122000,28.860000
1.360,0.723000,0.300000,0.562000,-8.244000,13.053000,38.313000,28.950000
1.373,0.750000,0.294000,0.577000,-8.832000,18.756000,40.344000,28.910000
1.380,0.735000,0.274000,0.558000,-11.115000,20.855000,40.008000,29.000000
1.393,0.732000,0.253000,0.562000,-9.908000,21.427000,40.221000,28.910000
1.405,0.707000,0.261000,0.572000,-10.305000,19.328000,41.763000,28.860000
1.412,0.700000,0.261000,0.548000,-8.130000,14.740000,42.313000,28.860000
1.426,0.731000,0.258000,0.553000,-6.351000,15.832000,42.313000,28.810000
1.433,0.731000,0.260000,0.593000,-5.008000,20.229000,43.550000,28.910000
1.444,0.704000,0.247000,0.590000,-6.023000,24.008000,43.641000,28.860000
1.451,0.671000,0.235000,0.588000,-5.802000,25.969000,43.229000,28.860000
1.464,0.655000,0.211000,0.594000,-10.977000,29.198000,42.015000,28.950000
1.471,0.657000,0.167000,0.575000,-9.908000,29.794000,40.458000,28.950000
1.484,0.631000,0.173000,0.564000,-7.756000,30.710000,36.565000,28.910000
1.491,0.599000,0.172000,0.566000,-5.336000,25.794000,35.786000,28.860000
1.503,0.603000,0.154000,0.571000,-3.267000,20.115000,37.901000,28.860000
1.510,0.599000,0.150000,0.602000,-6.763000,17.229000,41.267000,28.910000
1.524,0.577000,0.137000,0.563000,-7.634000,15.374000,46.275000,28.910000
1.530,0.538000,0.107000,0.574000,-13.137000,10.985000,45.679000,28.810000
1.543,0.559000,0.071000,0.538000,-12.710000,12.466000,46.740000,28.770000
1.555,0.555000,0.068000,0.541000,-12.260000,14.878000,48.244000,28.860000
1.562,0.550000,0.069000,0.521000,-17.893000,16.908000,44.634000,28.910000
1.575,0.548000,0.049000,0.519000,-22.595000,19.389000,43.214000,28.910000
1.582,0.522000,0.034000,0.490000,-21.282000,17.542000,39.740000,28.860000
1.594,0.496000,0.035000,0.490000,-16.969000,14.076000,31.947000,28.770000
1.601,0.499000,0.033000,0.519000,-10.954000,9.076000,27.924000,28.860000
1.613,0.492000,0.025000,0.548000,-9.573000,4.863000,23.282000,28.810000
1.621,0.564000,0.011000,0.563000,-4.160000,13.595000,16.160000,28.810000
1.634,0.603000,-0.003000,0.554000,-8.458000,18.313000,13.481000,28.860000
1.641,0.626000,0.013000,0.534000,-9.481000,22.290000,10.015000,28.860000
1.653,0.634000,0.016000,0.549000,-10.237000,24.794000,5.489000,28.950000
1.660,0.633000,-0.008000,0.572000,-8.351000,23.473000,8.198000,28.910000
1.674,0.621000,-0.037000,0.608000,-11.939000,26.947000,15.450000,28.910000
1.685,0.588000,-0.071000,0.612000,-18.153000,34.618000,26.153000,28.950000
1.692,0.522000,-0.074000,0.589000,-30.107000,42.084000,31.901000,28.860000
1.704,0.430000,-0.098000,0.528000,-41.260000,43.840000,26.847000,28.910000
1.711,0.444000,-0.118000,0.460000,-49.435000,40.794000,28.557000,29.000000
1.724,0.376000,-0.111000,0.394000,-49.748000,31.786000,21.351000,28.860000
1.730,0.338000,-0.089000,0.400000,-41.802000,16.687000,10.962000,28.950000
1.743,0.374000,-0.091000,0.416000,-33.733000,5.511000,-0.534000,28.860000
1.755,0.427000,-0.135000,0.442000,-19.412000,-2.557000,-12.099000,28.910000
1.762,0.521000,-0.141000,0.490000,-8.214000,2.427000,-15.733000,28.910000
1.776,0.582000,-0.133000,0.483000,-8.931000,12.229000,-13.733000,29.050000
1.782,0.614000,-0.137000,0.466000,-14.656000,16.542000,-10.374000,28.860000
1.794,0.639000,-0.138000,0.418000,-21.275000,19.000000,-10.176000,28.810000
1.800,0.601000,-0.140000,0.404000,-17.557000,12.473000,-8.374000,28.810000
1.813,0.525000,-0.123000,0.443000,-7.695000,-1.618000,-9.221000,28.860000
1.820,0.507000,-0.116000,0.502000,-0.802000,-9.626000,-11.511000,28.860000
1.833,0.493000,-0.149000,0.496000,4.366000,-16.015000,-13.275000,28.860000
1.845,0.513000,-0.147000,0.514000,7.565000,-21.122000,-15.985000,28.860000
1.852,0.581000,-0.147000,0.514000,4.634000,-19.550000,-17.588000,28.910000
1.864,0.632000,-0.144000,0.494000,1.366000,-14.000000,-19.389000,28.860000
1.871,0.678000,-0.125000,0.486000,-1.489000,-4.527000,-18.626000,28.770000
1.884,0.655000,-0.112000,0.483000,-8.031000,0.061000,-13.634000,28.910000
1.890,0.596000,-0.091000,0.481000,-6.092000,-1.779000,-12.366000,28.910000
1.903,0.560000,-0.072000,0.483000,-4.519000,-5.992000,-13.359000,28.910000
1.915,0.554000,-0.077000,0.495000,0.275000,-9.221000,-16.817000,28.950000
1.923,0.593000,-0.081000,0.494000,1.794000,-6.695000,-21.214000,28.950000
1.934,0.622000,-0.080000,0.456000,-1.092000,0.924000,-26.893000,28.910000
1.941,0.661000,-0.074000,0.435000,-3.229000,6.069000,-30.427000,28.910000
1.953,0.699000,-0.064000,0.426000,-3.336000,11.031000,-31.504000,28.860000
1.960,0.708000,-0.058000,0.439000,-1.664000,15.282000,-28.794000,28.860000
1.974,0.654000,-0.073000,0.473000,9.573000,15.893000,-24.435000,28.950000
1.979,0.572000,-0.045000,0.540000,16.244000,8.702000,-25.779000,28.810000
1.993,0.586000,-0.001000,0.576000,13.229000,7.466000,-30.779000,28.910000
2.004,0.641000,-0.004000,0.569000,8.275000,12.649000,-36.496000,28.860000
2.011,0.686000,-0.001000,0.533000,1.618000,21.115000,-41.252000,28.860000
2.025,0.690000,0.017000,0.498000,2.023000,21.504000,-44.450000,28.860000
2.032,0.686000,0.011000,0.527000,8.115000,17.557000,-48.824000,29.000000
2.043,0.689000,-0.003000,0.549000,16.977000,5.656000,-43.435000,28.910000
2.050,0.689000,-0.024000,0.589000,24.420000,-2.313000,-39.794000,28.950000
2.062,0.675000,-0.007000,0.634000,29.344000,-5.885000,-33.901000,28.860000
2.075,0.657000,0.032000,0.620000,27.344000,-8.115000,-30.832000,28.910000
2.082,0.691000,0.053000,0.591000,15.206000,-3.924000,-30.489000,28.910000
2.094,0.758000,0.031000,0.534000,3.992000,7.863000,-30.145000,28.860000
2.101,0.751000,0.054000,0.496000,2.489000,18.756000,-25.550000,28.860000
2.114,0.722000,0.050000,0.505000,0.519000,24.641000,-24.305000,28.860000
2.121,0.670000,0.018000,0.506000,6.679000,26.962000,-18.237000,28.910000
2.134,0.576000,0.017000,0.534000,12.534000,21.802000,-12.511000,28.910000
2.141,0.482000,0.043000,0.529000,11.985000,12.115000,-14.679000,28.860000
2.153,0.501000,0.047000,0.505000,10.634000,8.977000,-21.901000,28.860000
2.165,0.552000,0.053000,0.483000,14.672000,13.092000,-28.427000,28.910000
2.172,0.559000,0.087000,0.514000,17.824000,14.229000,-34.137000,28.810000
2.184,0.595000,0.099000,0.499000,20.725000,13.359000,-37.847000,28.910000
2.192,0.619000,0.076000,0.524000,27.427000,10.359000,-39.473000,28.860000
2.204,0.617000,0.090000,0.561000,32.137000,5.374000,-34.305000,28.860000
2.210,0.573000,0.103000,0.577000,38.053000,-1.733000,-30.252000,28.860000
2.223,0.533000,0.101000,0.615000,40.985000,-8.435000,-29.748000,28.910000
2.231,0.514000,0.137000,0.626000,43.076000,-14.634000,-31.618000,28.910000
2.242,0.533000,0.157000,0.631000,41.298000,-19.130000,-35.366000,28.860000
2.254,0.638000,0.158000,0.626000,36.618000,-12.267000,-35.015000,28.860000
2.261,0.664000,0.198000,0.588000,28.130000,-3.427000,-31.733000,28.910000
2.275,0.671000,0.213000,0.562000,27.092000,4.962000,-33.618000,28.910000
2.281,0.634000,0.217000,0.570000,28.145000,7.405000,-33.824000,28.770000
2.293,0.580000,0.209000,0.583000,32.481000,4.382000,-33.840000,28.860000
2.300,0.565000,0.192000,0.640000,37.038000,2.557000,-36.023000,28.860000
2.313,0.543000,0.171000,0.686000,44.985000,2.069000,-33.221000,28.810000
2.320,0.444000,0.244000,0.730000,42.733000,-3.534000,-28.756000,28.810000
2.334,0.411000,0.279000,0.672000,31.252000,-10.366000,-34.969000,28.860000
2.345,0.548000,0.268000,0.621000,26.305000,-6.191000,-43.359000,28.950000
2.351,0.635000,0.279000,0.594000,22.298000,8.092000,-49.435000,28.950000
2.364,0.692000,0.320000,0.589000,19.008000,19.069000,-51.336000,28.910000
2.371,0.673000,0.306000,0.566000,22.023000,25.328000,-50.702000,28.910000
2.383,0.651000,0.244000,0.576000,32.328000,26.191000,-43.427000,28.860000
2.390,0.552000,0.255000,0.621000,40.916000,20.809000,-25.046000,28.770000
2.403,0.392000,0.339000,0.601000,36.595000,4.450000,-20.595000,28.950000
2.415,0.439000,0.341000,0.563000,35.939000,-3.847000,-35.053000,28.910000
2.423,0.549000,0.351000,0.576000,36.130000,2.519000,-43.802000,28.770000
2.434,0.617000,0.385000,0.572000,34.229000,10.275000,-51.710000,28.950000
2.441,0.647000,0.397000,0.583000,35.061000,16.229000,-58.069000,28.860000
2.454,0.667000,0.365000,0.575000,44.641000,19.473000,-56.679000,28.810000
2.460,0.620000,0.324000,0.651000,55.198000,16.313000,-43.282000,28.910000
2.473,0.494000,0.417000,0.682000,49.901000,7.893000,-27.687000,28.860000
2.481,0.403000,0.460000,0.628000,43.809000,-6.420000,-30.611000,28.860000
2.493,0.503000,0.442000,0.618000,42.397000,-6.794000,-38.145000,28.910000
2.505,0.582000,0.489000,0.621000,39.924000,-1.443000,-47.473000,28.910000
2.512,0.640000,0.533000,0.584000,39.496000,2.962000,-51.939000,28.910000
2.525,0.635000,0.549000,0.590000,39.908000,-1.634000,-54.969000,28.950000
2.531,0.625000,0.530000,0.615000,41.649000,-7.588000,-53.809000,28.860000
2.543,0.661000,0.490000,0.646000,40.466000,-4.473000,-45.504000,28.910000
2.551,0.683000,0.530000,0.668000,27.878000,5.733000,-34.870000,28.810000
2.563,0.693000,0.533000,0.674000,20.779000,22.305000,-31.672000,28.950000
2.570,0.657000,0.541000,0.697000,15.847000,35.427000,-32.153000,28.860000
2.582,0.604000,0.558000,0.727000,16.237000,36.427000,-37.313000,28.860000
2.595,0.566000,0.547000,0.772000,20.191000,29.557000,-44.550000,28.810000
2.602,0.577000,0.503000,0.848000,27.824000,22.916000,-42.802000,28.810000
2.614,0.573000,0.559000,0.863000,23.748000,20.611000,-33.557000,28.860000
2.621,0.548000,0.584000,0.793000,18.679000,12.771000,-32.939000,28.860000
2.634,0.568000,0.588000,0.750000,14.603000,14.229000,-34.947000,28.810000
2.641,0.633000,0.599000,0.688000,7.947000,19.351000,-34.328000,28.910000
2.653,0.688000,0.574000,0.645000,5.092000,29.649000,-32.962000,28.810000
2.660,0.691000,0.531000,0.610000,6.740000,37.649000,-23.443000,28.860000
2.674,0.600000,0.510000,0.568000,10.534000,39.115000,-11.855000,28.860000
2.685,0.484000,0.523000,0.548000,15.336000,35.901000,-7.527000,28.910000
2.692,0.395000,0.568000,0.555000,19.802000,25.053000,-6.511000,28.910000
2.704,0.337000,0.579000,0.569000,25.878000,12.618000,-13.229000,28.770000
2.711,0.354000,0.577000,0.606000,30.687000,7.626000,-22.336000,28.950000
2.724,0.433000,0.542000,0.612000,33.756000,9.924000,-23.748000,28.860000
2.731,0.432000,0.473000,0.614000,36.885000,12.168000,-21.656000,28.910000
2.743,0.384000,0.580000,0.677000,25.008000,13.817000,-8.794000,28.810000
2.750,0.325000,0.634000,0.609000,10.046000,15.550000,-8.679000,28.950000
2.762,0.362000,0.626000,0.607000,-0.618000,22.641000,-10.565000,28.860000
2.775,0.375000,0.588000,0.599000,-3.855000,30.183000,-10.618000,28.860000
2.782,0.335000,0.551000,0.571000,-3.099000,32.718000,-11.542000,28.910000
2.794,0.272000,0.489000,0.549000,3.962000,27.473000,-9.237000,28.910000
2.801,0.239000,0.451000,0.559000,9.870000,17.771000,-3.099000,28.860000
2.814,0.263000,0.573000,0.553000,1.557000,14.420000,9.153000,28.950000
2.821,0.206000,0.623000,0.410000,-5.603000,12.267000,7.573000,28.910000
2.835,0.261000,0.617000,0.380000,0.435000,16.115000,-9.702000,28.910000
2.841,0.288000,0.604000,0.433000,14.053000,18.153000,-24.740000,28.860000
2.853,0.281000,0.584000,0.486000,35.916000,10.130000,-42.893000,28.860000
2.860,0.290000,0.578000,0.568000,54.389000,-0.137000,-58.847000,28.910000
2.874,0.331000,0.593000,0.681000,67.053000,-12.061000,-67.344000,28.910000
2.884,0.384000,0.600000,0.733000,69.160000,-17.427000,-64.053000,28.910000
2.892,0.429000,0.712000,0.789000,49.573000,-12.008000,-50.901000,28.770000
2.904,0.453000,0.775000,0.681000,28.351000,-0.092000,-49.130000,28.860000
2.910,0.557000,0.778000,0.633000,20.718000,21.076000,-52.588000,28.910000
2.924,0.592000,0.765000,0.663000,19.504000,33.145000,-48.939000,28.910000
2.930,0.549000,0.730000,0.683000,25.718000,33.817000,-44.618000,28.860000
2.943,0.493000,0.697000,0.718000,36.489000,29.679000,-39.137000,28.860000
2.955,0.417000,0.655000,0.709000,48.053000,26.305000,-30.366000,28.860000
2.961,0.291000,0.675000,0.703000,47.641000,13.847000,-22.435000,28.910000
2.974,0.212000,0.805000,0.708000,34.802000,-1.763000,-18.176000,28.910000
2.982,0.300000,0.822000,0.596000,18.420000,-6.779000,-23.015000,28.770000
2.993,0.406000,0.792000,0.568000,20.550000,-0.061000,-31.550000,28.950000
3.000,0.454000,0.752000,0.525000,28.626000,12.435000,-40.939000,28.910000
3.013,0.411000,0.738000,0.568000,38.794000,10.542000,-46.695000,28.810000
3.025,0.379000,0.703000,0.588000,56.695000,-0.099000,-52.962000,28.860000
3.032,0.363000,0.693000,0.645000,69.183000,-13.771000,-53.908000,28.860000
3.045,0.314000,0.730000,0.672000,73.969000,-26.382000,-50.611000,28.810000
3.051,0.235000,0.791000,0.701000,72.244000,-43.511000,-50.603000,28.810000
3.063,0.329000,0.869000,0.742000,53.802000,-50.229000,-49.954000,28.910000
3.070,0.418000,0.897000,0.677000,34.275000,-46.290000,-48.855000,28.860000
3.083,0.569000,0.885000,0.659000,21.740000,-28.908000,-43.649000,28.770000
3.095,0.605000,0.858000,0.669000,17.260000,-7.076000,-35.695000,28.810000
3.102,0.528000,0.780000,0.626000,25.756000,2.046000,-30.947000,28.910000
3.114,0.425000,0.743000,0.611000,38.924000,-2.641000,-26.267000,28.950000
3.121,0.284000,0.718000,0.632000,55.076000,-20.183000,-18.588000,28.860000
3.134,0.128000,0.724000,0.668000,65.069000,-50.542000,-8.168000,28.860000
3.141,0.079000,0.889000,0.768000,46.084000,-80.321000,-6.023000,28.910000
3.153,0.145000,0.909000,0.601000,21.878000,-94.603000,-14.031000,28.910000
3.165,0.365000,0.869000,0.554000,16.351000,-87.305000,-32.977000,28.860000
3.172,0.528000,0.869000,0.542000,12.687000,-66.733000,-41.847000,28.860000
3.184,0.560000,0.832000,0.492000,17.748000,-53.061000,-50.359000,29.000000
3.191,0.606000,0.823000,0.490000,22.802000,-45.183000,-59.115000,28.910000
3.203,0.638000,0.765000,0.503000,35.664000,-36.771000,-62.000000,28.950000
3.210,0.604000,0.788000,0.525000,51.466000,-32.824000,-56.061000,28.950000
3.224,0.434000,0.866000,0.634000,56.649000,-43.420000,-43.718000,28.860000
3.235,0.345000,0.974000,0.677000,45.557000,-61.885000,-35.702000,28.810000
3.242,0.336000,0.967000,0.668000,36.046000,-76.366000,-36.183000,28.910000
3.254,0.395000,0.912000,0.661000,32.710000,-80.076000,-35.939000,28.950000
3.261,0.428000,0.855000,0.643000,29.473000,-79.687000,-32.527000,28.860000
3.274,0.431000,0.804000,0.620000,30.221000,-74.519000,-28.557000,28.810000
3.280,0.431000,0.894000,0.646000,20.534000,-66.969000,-18.672000,28.910000
3.293,0.417000,0.898000,0.602000,7.344000,-49.718000,-5.878000,28.860000
3.305,0.358000,0.902000,0.572000,-4.191000,-34.695000,2.511000,28.860000
3.312,0.308000,0.991000,0.595000,-20.305000,-20.504000,9.947000,28.860000
3.324,0.242000,0.932000,0.503000,-27.191000,-9.405000,-0.534000,28.950000
3.332,0.275000,0.888000,0.499000,-28.687000,0.282000,-10.000000,28.910000
3.344,0.281000,0.835000,0.465000,-19.305000,7.893000,-18.046000,28.860000
3.350,0.282000,0.792000,0.423000,-13.374000,14.969000,-25.931000,28.860000
3.363,0.261000,0.819000,0.425000,-12.351000,14.580000,-33.405000,28.910000
3.376,0.307000,0.850000,0.385000,-18.229000,15.389000,-36.260000,28.910000
3.382,0.341000,0.835000,0.316000,-16.840000,20.038000,-38.229000,28.810000
3.394,0.377000,0.846000,0.320000,-15.473000,24.725000,-35.519000,28.950000
3.401,0.367000,0.846000,0.322000,-11.969000,25.496000,-28.885000,28.860000
3.413,0.288000,0.830000,0.336000,-5.443000,19.763000,-27.519000,28.810000
3.421,0.206000,0.821000,0.397000,5.847000,7.550000,-32.336000,28.910000
3.434,0.142000,0.799000,0.431000,19.260000,-9.687000,-38.916000,28.860000
3.440,0.092000,0.767000,0.506000,29.985000,-29.519000,-49.847000,28.860000
3.452,0.084000,0.778000,0.590000,31.214000,-51.496000,-55.901000,28.950000
3.464,0.119000,0.808000,0.587000,29.580000,-61.443000,-58.176000,28.910000
3.471,0.183000,0.847000,0.606000,20.626000,-72.847000,-53.634000,28.810000
3.484,0.218000,0.914000,0.639000,5.466000,-80.496000,-44.824000,28.860000
3.491,0.261000,0.914000,0.595000,-7.046000,-79.725000,-35.603000,28.950000
3.502,0.276000,0.909000,0.580000,-13.626000,-76.237000,-28.702000,28.860000
3.515,0.318000,0.931000,0.524000,-23.191000,-62.893000,-17.473000,28.810000
3.521,0.300000,0.907000,0.470000,-28.870000,-48.069000,-13.092000,28.910000
3.535,0.271000,0.892000,0.422000,-26.748000,-34.649000,-8.206000,28.860000
3.541,0.228000,0.919000,0.405000,-33.748000,-24.504000,-10.229000,28.860000
3.553,0.249000,0.890000,0.328000,-37.863000,-12.809000,-15.412000,28.810000
3.558,0.225000,0.853000,0.317000,-34.824000,-7.084000,-21.656000,28.910000
3.575,0.206000,0.855000,0.307000,-34.198000,-6.824000,-25.618000,28.860000
3.586,0.171000,0.882000,0.322000,-29.794000,-16.000000,-31.328000,28.860000
3.591,0.146000,0.914000,0.337000,-29.870000,-32.641000,-37.786000,28.810000
3.603,0.143000,0.884000,0.366000,-23.458000,-49.473000,-44.756000,28.910000
3.610,0.204000,0.945000,0.437000,-25.733000,-64.473000,-54.191000,28.810000
3.624,0.276000,0.892000,0.387000,-30.412000,-59.198000,-56.412000,28.950000
3.635,0.366000,0.928000,0.328000,-32.099000,-59.496000,-50.893000,28.860000
3.642,0.407000,0.895000,0.359000,-27.298000,-56.099000,-47.122000,28.910000
3.654,0.436000,0.900000,0.343000,-24.565000,-50.168000,-38.412000,28.910000
3.660,0.421000,0.922000,0.332000,-24.672000,-45.298000,-26.679000,28.860000
3.675,0.366000,0.920000,0.332000,-22.779000,-40.305000,-18.557000,28.950000
3.684,0.232000,0.912000,0.340000,-16.924000,-44.809000,-16.221000,28.860000
3.692,0.136000,0.921000,0.373000,-15.008000,-62.137000,-18.023000,28.910000
3.703,0.082000,0.939000,0.410000,-14.718000,-79.176000,-27.053000,28.810000
3.710,0.207000,0.965000,0.416000,-26.954000,-80.908000,-42.908000,28.860000
3.724,0.334000,0.919000,0.386000,-25.626000,-72.252000,-53.511000,28.860000
3.735,0.433000,0.867000,0.364000,-25.863000,-62.595000,-53.328000,28.910000
3.742,0.496000,0.835000,0.327000,-20.542000,-52.298000,-45.939000,28.810000
3.754,0.479000,0.819000,0.328000,-12.084000,-40.504000,-35.679000,28.950000
3.760,0.482000,0.790000,0.328000,-6.840000,-27.634000,-24.214000,28.860000
3.774,0.380000,0.809000,0.329000,-0.656000,-19.656000,-18.366000,28.860000
3.779,0.283000,0.817000,0.340000,-0.939000,-21.511000,-17.153000,28.810000
3.792,0.236000,0.861000,0.405000,-0.695000,-34.130000,-18.412000,28.810000
3.804,0.214000,0.911000,0.464000,-2.084000,-52.809000,-22.160000,28.950000
3.811,0.260000,0.953000,0.531000,-8.626000,-65.008000,-19.511000,28.860000
3.831,0.281000,0.932000,0.545000,-11.855000,-71.237000,-17.122000,28.810000
3.831,0.287000,0.914000,0.521000,-15.924000,-73.924000,-13.374000,28.810000
