time_sec,ax,ay,az,gx,gy,gz,temp_c
0.009,-0.047000,-0.519000,0.810000,-11.939000,54.626000,-0.580000,29.190000
0.021,-0.091000,-0.494000,0.804000,-12.740000,57.985000,3.206000,29.140000
0.028,-0.168000,-0.504000,0.801000,-13.191000,54.832000,5.618000,29.050000
0.040,-0.212000,-0.466000,0.826000,-15.458000,46.191000,4.817000,29.090000
0.052,-0.203000,-0.425000,0.846000,-22.718000,36.038000,-0.092000,29.090000
0.059,-0.147000,-0.424000,0.857000,-33.649000,28.473000,-3.916000,29.140000
0.071,-0.106000,-0.474000,0.816000,-41.198000,16.947000,-3.634000,29.240000
0.079,-0.072000,-0.550000,0.751000,-43.924000,9.542000,0.298000,29.240000
0.091,-0.028000,-0.559000,0.726000,-47.595000,7.229000,4.725000,29.190000
0.103,-0.029000,-0.554000,0.687000,-48.489000,6.206000,3.992000,29.140000
0.111,-0.051000,-0.534000,0.658000,-50.198000,8.374000,0.641000,29.140000
0.122,-0.096000,-0.527000,0.612000,-52.565000,5.893000,-5.008000,29.140000
0.128,-0.137000,-0.552000,0.574000,-54.664000,0.267000,-12.397000,29.190000
0.140,-0.128000,-0.549000,0.566000,-57.565000,-2.336000,-18.122000,29.190000
0.152,-0.104000,-0.648000,0.537000,-47.069000,-8.679000,-16.977000,29.240000
0.159,-0.083000,-0.651000,0.560000,-39.359000,-7.443000,-16.855000,29.050000
0.173,-0.073000,-0.644000,0.596000,-29.916000,-2.198000,-16.244000,29.090000
0.178,-0.083000,-0.627000,0.628000,-20.359000,2.092000,-15.267000,29.190000
0.190,-0.099000,-0.576000,0.667000,-12.214000,10.008000,-13.542000,29.240000
0.202,-0.129000,-0.548000,0.717000,-9.779000,13.840000,-11.908000,29.140000
0.208,-0.162000,-0.535000,0.741000,-9.305000,15.847000,-10.282000,29.190000
0.221,-0.200000,-0.534000,0.744000,-9.779000,14.344000,-6.740000,29.190000
0.233,-0.227000,-0.525000,0.728000,-9.168000,11.221000,-2.626000,29.140000
0.240,-0.256000,-0.536000,0.718000,-6.588000,6.985000,-0.466000,29.140000
0.252,-0.256000,-0.525000,0.707000,-3.733000,3.725000,-2.702000,29.140000
0.259,-0.244000,-0.509000,0.689000,-4.824000,5.069000,-6.679000,29.190000
0.273,-0.236000,-0.483000,0.683000,-5.397000,6.656000,-13.519000,29.140000
0.278,-0.239000,-0.473000,0.668000,-7.427000,7.053000,-21.214000,29.240000
0.290,-0.208000,-0.484000,0.645000,-9.511000,5.328000,-22.924000,29.190000
0.302,-0.183000,-0.477000,0.620000,-11.901000,1.443000,-21.405000,29.190000
0.309,-0.135000,-0.463000,0.617000,-16.359000,-1.992000,-18.527000,29.190000
0.321,-0.088000,-0.445000,0.634000,-23.893000,-2.427000,-14.015000,29.140000
0.329,-0.003000,-0.426000,0.659000,-33.718000,3.328000,-8.893000,29.240000
0.341,-0.002000,-0.445000,0.649000,-43.756000,12.298000,-2.420000,29.190000
0.352,0.000000,-0.494000,0.644000,-51.282000,23.137000,1.687000,29.190000
0.359,-0.045000,-0.579000,0.619000,-52.008000,27.099000,6.237000,29.240000
0.371,-0.137000,-0.665000,0.573000,-43.145000,25.298000,8.527000,29.140000
0.378,-0.185000,-0.715000,0.578000,-26.076000,21.137000,6.092000,29.190000
0.391,-0.217000,-0.726000,0.601000,-9.473000,15.443000,1.573000,29.190000
0.402,-0.218000,-0.697000,0.646000,3.908000,13.130000,-6.267000,29.140000
0.409,-0.210000,-0.666000,0.679000,12.008000,11.802000,-14.519000,29.240000
0.423,-0.199000,-0.643000,0.709000,15.710000,10.863000,-18.947000,29.140000
0.428,-0.201000,-0.635000,0.735000,19.099000,7.450000,-20.374000,29.090000
0.441,-0.184000,-0.599000,0.744000,18.458000,4.366000,-18.489000,29.240000
0.452,-0.175000,-0.606000,0.733000,16.550000,2.863000,-16.000000,29.240000
0.459,-0.157000,-0.602000,0.716000,16.786000,-0.031000,-12.763000,29.190000
0.472,-0.168000,-0.615000,0.722000,18.061000,-1.733000,-11.733000,29.190000
0.478,-0.160000,-0.608000,0.711000,20.130000,-5.122000,-11.611000,29.140000
0.490,-0.150000,-0.600000,0.702000,22.489000,-8.115000,-11.977000,29.240000
0.502,-0.123000,-0.586000,0.710000,22.954000,-8.290000,-13.382000,29.140000
0.509,-0.106000,-0.562000,0.692000,24.282000,-8.649000,-11.733000,29.090000
0.523,-0.100000,-0.558000,0.687000,24.107000,-9.069000,-8.275000,29.190000
0.528,-0.091000,-0.534000,0.707000,23.389000,-10.176000,-3.794000,29.240000
0.540,-0.065000,-0.477000,0.717000,17.924000,-8.954000,3.145000,29.240000
0.552,-0.072000,-0.487000,0.711000,12.969000,-9.061000,6.695000,29.190000
0.559,-0.069000,-0.463000,0.696000,8.725000,-6.305000,10.626000,29.190000
0.573,-0.118000,-0.484000,0.665000,8.489000,-4.237000,12.191000,29.240000
0.578,-0.154000,-0.479000,0.639000,9.672000,-1.321000,13.626000,29.240000
0.591,-0.199000,-0.487000,0.632000,11.794000,2.031000,13.137000,29.240000
0.597,-0.243000,-0.490000,0.634000,13.908000,4.840000,8.794000,29.190000
0.610,-0.270000,-0.503000,0.634000,16.122000,5.061000,3.687000,29.140000
0.623,-0.287000,-0.510000,0.619000,19.382000,1.542000,-2.076000,29.240000
0.629,-0.286000,-0.500000,0.614000,23.977000,-3.947000,-9.450000,29.280000
0.642,-0.249000,-0.492000,0.611000,27.664000,-6.183000,-16.779000,29.190000
0.648,-0.206000,-0.495000,0.617000,31.313000,-7.885000,-21.824000,29.140000
0.660,-0.179000,-0.487000,0.619000,32.832000,-9.519000,-23.244000,29.140000
0.674,-0.129000,-0.459000,0.645000,35.397000,-10.237000,-25.260000,29.280000
0.679,-0.109000,-0.417000,0.673000,33.076000,-11.695000,-25.366000,29.090000
0.691,-0.090000,-0.399000,0.680000,27.794000,-11.901000,-25.031000,29.190000
0.702,-0.073000,-0.399000,0.675000,22.344000,-13.985000,-23.893000,29.240000
0.709,-0.062000,-0.406000,0.670000,18.893000,-17.191000,-21.321000,29.140000
0.724,-0.025000,-0.405000,0.649000,17.527000,-17.260000,-20.282000,29.190000
0.728,0.025000,-0.426000,0.643000,16.634000,-14.366000,-19.191000,29.190000
0.741,0.073000,-0.443000,0.626000,16.695000,-5.962000,-17.664000,29.240000
0.753,0.113000,-0.453000,0.610000,16.099000,4.840000,-14.748000,29.240000
0.759,0.082000,-0.465000,0.603000,15.061000,13.557000,-9.649000,29.240000
0.773,0.019000,-0.491000,0.596000,14.817000,18.824000,-4.695000,29.190000
0.779,-0.014000,-0.507000,0.592000,15.473000,21.840000,-1.527000,29.240000
0.791,-0.054000,-0.514000,0.607000,18.481000,22.130000,-1.496000,29.140000
0.803,-0.064000,-0.492000,0.638000,21.313000,21.557000,-3.832000,29.190000
0.809,-0.060000,-0.473000,0.678000,22.275000,19.527000,-6.794000,29.190000
0.823,-0.041000,-0.483000,0.688000,21.427000,20.145000,-8.649000,29.240000
0.829,-0.012000,-0.498000,0.691000,19.137000,23.336000,-8.427000,29.240000
0.842,-0.029000,-0.521000,0.687000,18.244000,27.412000,-8.992000,29.190000
0.847,-0.031000,-0.527000,0.701000,20.198000,30.420000,-9.863000,29.190000
0.860,-0.048000,-0.493000,0.732000,21.527000,33.427000,-12.061000,29.240000
0.872,-0.039000,-0.438000,0.787000,16.565000,36.115000,-13.069000,29.240000
0.879,-0.039000,-0.422000,0.835000,7.473000,38.267000,-11.221000,29.240000
0.891,-0.071000,-0.426000,0.846000,-2.344000,38.466000,-6.405000,29.280000
0.896,-0.090000,-0.440000,0.827000,-8.359000,36.038000,-2.481000,29.190000
0.910,-0.103000,-0.452000,0.830000,-14.084000,32.298000,2.107000,29.330000
0.923,-0.144000,-0.476000,0.801000,-17.779000,26.542000,4.176000,29.140000
0.930,-0.168000,-0.509000,0.788000,-16.786000,21.397000,2.015000,29.240000
0.941,-0.181000,-0.515000,0.790000,-14.244000,18.206000,-2.817000,29.190000
0.947,-0.170000,-0.509000,0.786000,-12.374000,17.092000,-8.389000,29.140000
0.959,-0.166000,-0.495000,0.769000,-11.405000,15.573000,-11.893000,29.240000
0.973,-0.189000,-0.485000,0.769000,-11.427000,9.000000,-11.878000,29.280000
0.979,-0.200000,-0.444000,0.754000,-15.412000,1.649000,-9.466000,29.190000
0.991,-0.190000,-0.445000,0.758000,-19.893000,-9.885000,-8.244000,29.240000
1.003,-0.157000,-0.431000,0.756000,-27.870000,-17.328000,-6.855000,29.240000
1.009,-0.115000,-0.490000,0.730000,-34.069000,-20.656000,-6.061000,29.190000
1.023,-0.053000,-0.571000,0.703000,-31.656000,-12.809000,-6.634000,29.190000
1.028,-0.036000,-0.619000,0.688000,-25.664000,0.641000,-7.382000,29.240000
1.040,-0.064000,-0.612000,0.702000,-16.427000,11.382000,-10.733000,29.140000
1.052,-0.121000,-0.559000,0.752000,-11.710000,14.260000,-14.137000,29.190000
1.059,-0.156000,-0.517000,0.786000,-12.412000,6.656000,-15.145000,29.190000
1.071,-0.143000,-0.475000,0.813000,-18.031000,-5.748000,-15.046000,29.240000
1.083,-0.071000,-0.490000,0.818000,-27.763000,-16.969000,-11.221000,29.140000
1.091,0.020000,-0.579000,0.774000,-32.115000,-21.832000,-4.389000,29.240000
1.103,0.092000,-0.659000,0.728000,-29.878000,-12.664000,0.573000,29.190000
1.109,0.109000,-0.699000,0.702000,-21.412000,1.924000,2.595000,29.280000
1.123,0.073000,-0.653000,0.709000,-13.649000,19.832000,2.969000,29.140000
1.128,-0.000000,-0.599000,0.724000,-11.725000,34.947000,-0.260000,29.240000
1.141,-0.070000,-0.576000,0.701000,-11.611000,45.076000,-7.565000,29.280000
1.152,-0.132000,-0.583000,0.677000,-11.855000,49.710000,-13.214000,29.190000
1.159,-0.186000,-0.569000,0.649000,-11.580000,46.885000,-16.687000,29.140000
1.171,-0.208000,-0.541000,0.627000,-16.763000,37.626000,-15.855000,29.240000
1.183,-0.233000,-0.525000,0.602000,-25.000000,25.672000,-13.237000,29.280000
1.192,-0.229000,-0.538000,0.593000,-31.038000,12.397000,-8.298000,29.280000
1.201,-0.203000,-0.566000,0.609000,-33.176000,4.221000,-4.466000,29.240000
1.208,-0.171000,-0.581000,0.644000,-30.687000,3.565000,-3.779000,29.140000
1.220,-0.155000,-0.621000,0.676000,-24.443000,10.443000,-7.580000,29.190000
1.233,-0.142000,-0.659000,0.740000,-17.237000,22.031000,-11.519000,29.190000
1.240,-0.170000,-0.656000,0.752000,-10.580000,30.443000,-12.969000,29.420000
1.251,-0.248000,-0.626000,0.772000,-5.084000,29.099000,-11.366000,29.240000
1.258,-0.321000,-0.573000,0.813000,-2.824000,19.618000,-8.595000,29.240000
1.270,-0.378000,-0.478000,0.877000,-10.267000,2.618000,-3.878000,29.280000
1.282,-0.381000,-0.458000,0.918000,-24.000000,-15.290000,-0.229000,29.050000
1.289,-0.340000,-0.518000,0.911000,-33.595000,-30.695000,-0.718000,29.240000
1.301,-0.229000,-0.595000,0.881000,-37.924000,-35.397000,-5.023000,29.280000
1.313,-0.096000,-0.683000,0.859000,-37.534000,-28.466000,-9.763000,29.190000
1.320,-0.013000,-0.752000,0.817000,-29.847000,-13.229000,-13.878000,29.240000
1.331,-0.020000,-0.754000,0.814000,-20.939000,0.733000,-12.198000,29.240000
1.339,-0.107000,-0.691000,0.819000,-17.130000,4.824000,-9.756000,29.190000
1.350,-0.210000,-0.647000,0.833000,-22.137000,-4.550000,-7.817000,29.190000
1.362,-0.248000,-0.675000,0.801000,-30.038000,-18.389000,-5.298000,29.190000
1.369,-0.223000,-0.714000,0.758000,-30.031000,-29.061000,-5.115000,29.140000
1.382,-0.122000,-0.781000,0.747000,-25.962000,-28.786000,-11.412000,29.240000
1.393,-0.056000,-0.717000,0.747000,-21.397000,-20.878000,-15.412000,29.090000
1.399,-0.169000,-0.694000,0.750000,-27.206000,-31.969000,-10.573000,29.190000
1.411,-0.256000,-0.620000,0.779000,-40.985000,-52.260000,-5.595000,29.140000
1.418,-0.315000,-0.596000,0.782000,-58.275000,-81.153000,-0.130000,29.240000
1.431,-0.280000,-0.615000,0.749000,-76.214000,-109.718000,6.939000,29.240000
1.442,-0.078000,-0.727000,0.704000,-84.038000,-114.908000,7.565000,29.280000
1.449,0.089000,-0.834000,0.659000,-83.359000,-96.748000,3.290000,29.240000
1.461,0.243000,-0.990000,0.599000,-66.924000,-57.405000,-6.344000,29.240000
1.467,0.231000,-1.027000,0.610000,-38.710000,-12.504000,-18.092000,29.190000
1.480,0.131000,-0.976000,0.655000,-15.145000,17.008000,-23.679000,29.190000
1.492,0.023000,-0.924000,0.676000,0.947000,35.817000,-24.527000,29.240000
1.499,-0.109000,-0.815000,0.704000,7.145000,37.198000,-16.519000,29.240000
1.511,-0.213000,-0.760000,0.729000,1.420000,23.702000,-4.855000,29.280000
1.518,-0.198000,-0.671000,0.744000,-8.000000,12.229000,1.084000,29.190000
1.531,-0.164000,-0.698000,0.740000,-16.504000,6.107000,1.924000,29.140000
1.543,-0.080000,-0.768000,0.715000,-12.626000,6.534000,-4.374000,29.140000
1.549,0.023000,-0.795000,0.716000,-5.229000,11.618000,-9.519000,29.190000
1.562,0.090000,-0.857000,0.707000,2.901000,19.237000,-9.603000,29.190000
1.568,0.124000,-0.838000,0.719000,9.282000,31.313000,-5.397000,29.330000
1.582,0.082000,-0.770000,0.728000,10.328000,38.870000,0.710000,29.330000
1.589,-0.016000,-0.731000,0.710000,6.870000,39.855000,7.359000,29.330000
1.600,-0.103000,-0.729000,0.685000,2.954000,34.374000,12.679000,29.190000
1.613,-0.138000,-0.711000,0.694000,-4.580000,32.252000,8.443000,29.190000
1.620,-0.184000,-0.813000,0.648000,8.237000,24.481000,7.084000,29.240000
1.632,-0.196000,-0.880000,0.614000,17.282000,16.450000,0.893000,29.240000
1.639,-0.187000,-0.884000,0.617000,25.824000,10.763000,-3.710000,29.190000
1.651,-0.079000,-0.882000,0.626000,34.771000,10.473000,-10.893000,29.280000
1.663,0.024000,-0.795000,0.699000,42.130000,15.710000,-14.122000,29.240000
1.670,0.063000,-0.709000,0.777000,37.695000,20.962000,-9.649000,29.240000
1.683,0.013000,-0.667000,0.831000,23.977000,17.939000,2.298000,29.280000
1.690,-0.014000,-0.689000,0.862000,7.847000,12.824000,13.427000,29.280000
1.701,-0.038000,-0.748000,0.821000,-4.885000,10.527000,17.366000,29.240000
1.708,-0.021000,-0.829000,0.771000,-8.137000,9.084000,16.198000,29.140000
1.720,-0.064000,-0.842000,0.737000,-5.046000,8.069000,8.824000,29.190000
1.734,-0.120000,-0.899000,0.713000,4.595000,-1.321000,-3.908000,29.190000
1.740,-0.098000,-0.880000,0.730000,10.084000,-12.542000,-13.901000,29.240000
1.751,-0.066000,-0.883000,0.745000,10.649000,-25.534000,-16.290000,29.240000
1.758,0.029000,-0.968000,0.726000,8.557000,-30.557000,-9.153000,29.240000
1.773,0.091000,-0.939000,0.740000,10.084000,-26.145000,4.168000,29.190000
1.783,0.093000,-0.888000,0.758000,6.000000,-4.389000,9.740000,29.240000
1.790,-0.023000,-0.866000,0.759000,6.649000,10.107000,12.511000,29.240000
1.802,-0.144000,-0.824000,0.762000,3.489000,19.313000,13.824000,29.280000
1.809,-0.260000,-0.807000,0.730000,0.145000,20.626000,12.328000,29.280000
1.823,-0.294000,-0.784000,0.710000,-0.107000,21.542000,3.634000,29.240000
1.829,-0.319000,-0.772000,0.700000,1.954000,17.389000,-6.351000,29.330000
1.841,-0.356000,-0.812000,0.684000,4.115000,6.099000,-11.863000,29.190000
1.853,-0.366000,-0.822000,0.683000,4.702000,-10.626000,-16.359000,29.190000
1.859,-0.283000,-0.853000,0.691000,1.763000,-25.527000,-19.466000,29.190000
1.872,-0.137000,-0.857000,0.704000,3.130000,-31.595000,-20.664000,29.240000
1.878,0.020000,-0.878000,0.724000,4.237000,-25.435000,-18.420000,29.140000
1.891,0.092000,-0.907000,0.732000,7.931000,-10.412000,-12.137000,29.190000
1.903,0.077000,-0.891000,0.748000,9.008000,5.137000,-5.305000,29.190000
1.910,0.008000,-0.870000,0.761000,10.527000,14.038000,1.618000,29.330000
1.923,-0.098000,-0.841000,0.770000,7.779000,13.160000,8.450000,29.240000
1.929,-0.150000,-0.800000,0.765000,3.794000,7.511000,10.969000,29.240000
1.941,-0.138000,-0.816000,0.766000,0.031000,0.557000,10.427000,29.280000
1.948,-0.096000,-0.814000,0.745000,-1.351000,-1.931000,9.786000,29.240000
1.960,-0.023000,-0.849000,0.727000,0.824000,0.153000,11.038000,29.240000
1.968,-0.011000,-0.889000,0.733000,6.137000,3.718000,7.466000,29.280000
1.980,-0.007000,-0.889000,0.741000,14.038000,8.511000,6.908000,29.190000
1.992,-0.031000,-0.831000,0.765000,18.389000,12.458000,4.901000,29.280000
1.999,-0.075000,-0.781000,0.777000,16.405000,10.496000,4.313000,29.240000
2.012,-0.111000,-0.762000,0.787000,12.443000,6.527000,4.237000,29.140000
2.018,-0.117000,-0.746000,0.820000,7.313000,4.115000,2.321000,29.280000
2.031,-0.127000,-0.745000,0.820000,2.260000,2.534000,0.519000,29.190000
2.038,-0.147000,-0.749000,0.814000,-1.725000,-1.244000,-0.519000,29.140000
2.050,-0.141000,-0.742000,0.813000,-6.656000,-6.290000,-0.076000,29.240000
2.062,-0.116000,-0.751000,0.821000,-8.267000,-6.008000,-2.580000,29.280000
2.069,-0.090000,-0.775000,0.817000,-8.160000,-1.504000,-6.221000,29.280000
2.083,-0.082000,-0.780000,0.808000,-6.588000,1.076000,-8.069000,29.140000
2.088,-0.086000,-0.785000,0.791000,-6.069000,-0.969000,-6.893000,29.240000
2.100,-0.082000,-0.760000,0.800000,-8.481000,-4.611000,-3.580000,29.330000
2.112,-0.054000,-0.768000,0.794000,-11.069000,-5.924000,-2.321000,29.280000
2.119,-0.030000,-0.790000,0.775000,-11.687000,-5.023000,-0.802000,29.140000
2.131,-0.016000,-0.823000,0.743000,-9.626000,-3.176000,0.244000,29.240000
2.141,0.007000,-0.849000,0.741000,-6.908000,0.359000,1.641000,29.240000
2.151,0.004000,-0.851000,0.749000,-4.618000,3.969000,6.244000,29.280000
2.158,0.010000,-0.850000,0.762000,-3.366000,10.824000,10.443000,29.190000
2.170,-0.011000,-0.879000,0.777000,-3.145000,18.053000,16.626000,29.240000
2.182,-0.038000,-0.855000,0.801000,-2.954000,25.099000,21.832000,29.240000
2.189,-0.080000,-0.834000,0.826000,-2.718000,29.977000,26.198000,29.190000
2.201,-0.132000,-0.821000,0.866000,-4.550000,29.550000,30.519000,29.280000
2.208,-0.160000,-0.787000,0.897000,-7.511000,26.672000,35.733000,29.330000
2.220,-0.193000,-0.782000,0.911000,-10.252000,22.840000,38.168000,29.240000
2.233,-0.202000,-0.736000,0.943000,-15.405000,20.275000,39.420000,29.280000
2.240,-0.234000,-0.760000,0.920000,-12.771000,17.832000,35.618000,29.280000
2.251,-0.266000,-0.776000,0.917000,-10.985000,16.588000,28.336000,29.330000
2.258,-0.312000,-0.766000,0.889000,-8.519000,13.641000,18.962000,29.240000
2.270,-0.321000,-0.780000,0.831000,-6.977000,5.931000,9.565000,29.240000
2.284,-0.272000,-0.796000,0.781000,-4.198000,-3.084000,1.511000,29.190000
2.290,-0.207000,-0.795000,0.754000,-3.481000,-10.328000,-1.931000,29.140000
2.301,-0.154000,-0.823000,0.719000,-3.489000,-16.832000,0.229000,29.240000
2.308,-0.101000,-0.847000,0.702000,-0.046000,-17.893000,1.870000,29.190000
2.320,-0.061000,-0.847000,0.707000,6.221000,-18.756000,3.053000,29.190000
2.333,-0.050000,-0.835000,0.730000,9.817000,-18.046000,4.786000,29.240000
2.340,-0.035000,-0.818000,0.756000,12.107000,-16.382000,6.328000,29.330000
2.352,-0.026000,-0.816000,0.773000,12.336000,-14.710000,8.191000,29.190000
2.358,-0.030000,-0.769000,0.815000,8.641000,-11.298000,13.275000,29.280000
2.373,-0.068000,-0.738000,0.810000,5.542000,-8.931000,16.389000,29.330000
2.377,-0.094000,-0.686000,0.831000,0.099000,-8.244000,21.702000,29.240000
2.391,-0.137000,-0.688000,0.864000,-6.489000,-9.168000,24.595000,29.280000
2.402,-0.157000,-0.741000,0.866000,-12.168000,-10.046000,27.573000,29.280000
2.408,-0.183000,-0.794000,0.857000,-13.260000,-9.977000,27.954000,29.240000
2.421,-0.192000,-0.827000,0.844000,-9.855000,-10.718000,26.420000,29.330000
2.433,-0.217000,-0.827000,0.826000,-6.588000,-12.550000,24.618000,29.330000
2.440,-0.224000,-0.802000,0.796000,-5.420000,-15.748000,21.473000,29.190000
2.451,-0.204000,-0.802000,0.771000,-4.679000,-19.221000,18.450000,29.190000
2.458,-0.186000,-0.794000,0.742000,-4.832000,-24.405000,17.389000,29.330000
2.470,-0.174000,-0.796000,0.724000,-7.908000,-28.916000,17.679000,29.240000
2.483,-0.165000,-0.817000,0.694000,-9.084000,-31.267000,16.229000,29.190000
2.491,-0.158000,-0.860000,0.664000,-6.779000,-31.344000,13.947000,29.190000
2.502,-0.135000,-0.870000,0.665000,0.298000,-28.603000,9.015000,29.140000
2.508,-0.123000,-0.834000,0.667000,8.695000,-20.481000,2.389000,29.140000
2.520,-0.125000,-0.777000,0.697000,12.847000,-11.679000,-2.733000,29.190000
2.534,-0.168000,-0.729000,0.728000,13.420000,-7.534000,-5.046000,29.190000
2.540,-0.214000,-0.717000,0.732000,11.977000,-7.809000,-3.916000,29.240000
2.552,-0.235000,-0.708000,0.717000,8.244000,-12.221000,-2.458000,29.240000
2.558,-0.231000,-0.708000,0.689000,5.198000,-16.969000,-2.176000,29.190000
2.571,-0.218000,-0.732000,0.650000,6.191000,-18.679000,-4.580000,29.190000
2.583,-0.172000,-0.783000,0.616000,10.786000,-15.420000,-8.672000,29.140000
2.591,-0.164000,-0.801000,0.601000,18.832000,-7.466000,-8.511000,29.240000
2.602,-0.157000,-0.746000,0.621000,27.092000,0.458000,-12.435000,29.190000
2.608,-0.165000,-0.701000,0.631000,31.328000,5.840000,-19.176000,29.190000
2.622,-0.193000,-0.682000,0.653000,32.901000,6.092000,-24.687000,29.140000
2.633,-0.214000,-0.643000,0.665000,30.733000,-1.534000,-27.496000,29.240000
2.640,-0.218000,-0.622000,0.659000,26.298000,-15.588000,-28.366000,29.190000
2.652,-0.179000,-0.634000,0.651000,21.427000,-30.328000,-28.267000,29.280000
2.658,-0.076000,-0.656000,0.644000,19.824000,-35.153000,-27.397000,29.240000
2.670,0.034000,-0.662000,0.658000,20.412000,-26.748000,-25.153000,29.140000
2.683,0.099000,-0.655000,0.675000,22.962000,-6.656000,-24.756000,29.190000
2.689,0.094000,-0.643000,0.679000,24.374000,16.359000,-27.290000,29.280000
2.701,0.038000,-0.606000,0.689000,22.206000,33.145000,-29.496000,29.240000
2.708,-0.058000,-0.571000,0.692000,13.206000,37.252000,-29.618000,29.240000
2.720,-0.125000,-0.469000,0.728000,-4.573000,32.366000,-28.351000,29.190000
2.733,-0.216000,-0.406000,0.726000,-29.214000,14.550000,-24.710000,29.190000
2.740,-0.250000,-0.439000,0.713000,-54.160000,-10.748000,-23.870000,29.240000
2.751,-0.245000,-0.483000,0.649000,-64.603000,-23.817000,-25.107000,29.240000
2.763,-0.176000,-0.627000,0.623000,-61.183000,-33.435000,-31.351000,29.330000
2.769,-0.059000,-0.719000,0.621000,-48.221000,-28.076000,-41.443000,29.190000
2.782,0.017000,-0.726000,0.634000,-35.763000,-16.069000,-48.588000,29.240000
2.789,0.046000,-0.682000,0.641000,-25.366000,1.038000,-54.504000,29.140000
2.800,0.021000,-0.594000,0.669000,-25.374000,11.107000,-54.504000,29.240000
2.812,-0.012000,-0.568000,0.642000,-31.038000,14.176000,-54.779000,29.190000
2.819,-0.034000,-0.564000,0.589000,-38.351000,10.221000,-50.687000,29.190000
2.831,-0.016000,-0.572000,0.524000,-44.603000,5.580000,-43.916000,29.240000
2.839,0.034000,-0.619000,0.456000,-47.550000,2.420000,-37.069000,29.240000
2.851,0.079000,-0.677000,0.369000,-44.000000,2.595000,-29.595000,29.190000
2.862,0.129000,-0.796000,0.327000,-29.534000,6.389000,-21.779000,29.280000
2.869,0.140000,-0.824000,0.322000,-10.718000,11.672000,-12.351000,29.240000
2.881,0.143000,-0.787000,0.352000,5.298000,18.160000,-4.290000,29.240000
2.888,0.126000,-0.720000,0.403000,15.901000,26.069000,3.412000,29.280000
2.900,0.088000,-0.673000,0.448000,20.290000,31.031000,11.664000,29.190000
2.913,0.010000,-0.671000,0.476000,21.908000,31.748000,20.351000,29.240000
2.919,-0.060000,-0.659000,0.497000,23.687000,27.603000,26.206000,29.240000
2.932,-0.115000,-0.645000,0.516000,26.511000,18.809000,30.458000,29.140000
2.939,-0.129000,-0.657000,0.544000,27.603000,14.130000,27.527000,29.190000
2.950,-0.104000,-0.650000,0.569000,31.847000,14.031000,21.794000,29.140000
2.963,-0.088000,-0.662000,0.570000,36.947000,18.015000,13.389000,29.240000
2.970,-0.093000,-0.679000,0.581000,44.664000,19.855000,4.214000,29.240000
2.983,-0.089000,-0.591000,0.625000,43.153000,22.069000,-3.275000,29.190000
2.989,-0.130000,-0.565000,0.673000,35.626000,15.550000,-6.672000,29.190000
3.001,-0.134000,-0.545000,0.667000,25.031000,4.214000,-8.511000,29.240000
3.008,-0.095000,-0.589000,0.648000,18.366000,-8.214000,-6.679000,29.240000
3.020,-0.023000,-0.678000,0.607000,18.053000,-14.656000,-4.321000,29.190000
3.032,0.037000,-0.738000,0.571000,23.435000,-14.809000,-1.237000,29.280000
3.041,0.087000,-0.742000,0.565000,30.412000,-9.183000,1.565000,29.140000
3.051,0.091000,-0.747000,0.588000,36.076000,-2.641000,5.718000,29.240000
3.058,0.085000,-0.691000,0.577000,39.504000,3.496000,8.313000,29.190000
3.071,0.064000,-0.668000,0.584000,40.053000,7.550000,9.496000,29.280000
3.078,0.059000,-0.598000,0.577000,34.679000,6.771000,11.786000,29.140000
3.091,0.062000,-0.528000,0.553000,30.725000,5.550000,15.191000,29.330000
3.102,0.079000,-0.490000,0.553000,25.053000,3.145000,18.939000,29.140000
3.109,0.077000,-0.438000,0.511000,19.847000,2.389000,22.687000,29.190000
3.122,0.072000,-0.425000,0.471000,16.626000,0.748000,25.855000,29.240000
3.129,0.081000,-0.414000,0.441000,16.015000,-0.237000,27.779000,29.330000
3.141,0.046000,-0.406000,0.427000,15.389000,-2.580000,31.092000,29.190000
3.148,0.010000,-0.401000,0.424000,17.099000,-5.458000,31.168000,29.190000
3.160,-0.019000,-0.363000,0.440000,16.939000,-7.489000,30.198000,29.240000
3.173,-0.041000,-0.361000,0.477000,16.084000,-11.863000,28.542000,29.240000
3.179,-0.076000,-0.362000,0.498000,15.000000,-14.863000,25.962000,29.190000
3.191,-0.115000,-0.366000,0.532000,11.969000,-18.145000,22.565000,29.190000
3.198,-0.138000,-0.383000,0.550000,8.565000,-22.519000,17.450000,29.240000
3.210,-0.132000,-0.403000,0.567000,3.130000,-22.893000,11.160000,29.140000
3.223,-0.103000,-0.464000,0.560000,-0.794000,-20.084000,2.794000,29.190000
3.230,-0.084000,-0.531000,0.563000,0.275000,-17.519000,-3.076000,29.280000
3.241,-0.085000,-0.573000,0.573000,1.450000,-15.802000,-5.565000,29.240000
3.248,-0.115000,-0.604000,0.587000,2.985000,-18.763000,-6.183000,29.240000
3.260,-0.124000,-0.642000,0.616000,5.397000,-23.015000,-6.450000,29.240000
3.273,-0.100000,-0.632000,0.639000,6.473000,-26.550000,-6.405000,29.190000
3.279,-0.041000,-0.621000,0.642000,7.779000,-29.214000,-5.351000,29.380000
3.292,0.024000,-0.609000,0.618000,8.336000,-26.756000,-5.931000,29.240000
3.298,0.058000,-0.649000,0.583000,14.504000,-27.107000,-3.985000,29.240000
3.310,0.084000,-0.699000,0.555000,21.863000,-34.344000,2.275000,29.280000
3.323,0.116000,-0.744000,0.540000,38.092000,-39.229000,12.328000,29.280000
3.330,0.150000,-0.740000,0.574000,50.580000,-40.962000,24.198000,29.240000
3.342,0.218000,-0.714000,0.638000,59.718000,-35.313000,35.550000,29.140000
3.348,0.225000,-0.680000,0.742000,62.977000,-19.069000,46.740000,29.280000
3.361,0.162000,-0.588000,0.849000,62.168000,-4.214000,57.794000,29.190000
3.368,0.064000,-0.502000,0.955000,58.687000,6.626000,61.198000,29.140000
3.380,-0.050000,-0.442000,1.031000,54.672000,12.504000,55.885000,29.240000
3.392,-0.163000,-0.372000,1.092000,48.061000,9.458000,43.901000,29.280000
3.399,-0.228000,-0.333000,1.120000,37.893000,-0.916000,30.664000,29.280000
3.411,-0.247000,-0.308000,1.094000,24.840000,-13.885000,16.023000,29.240000
3.418,-0.235000,-0.341000,1.039000,11.931000,-27.061000,2.504000,29.240000
3.430,-0.160000,-0.406000,0.971000,1.641000,-35.466000,-7.214000,29.240000
3.442,-0.066000,-0.476000,0.895000,-2.954000,-38.328000,-13.863000,29.190000
3.449,0.030000,-0.507000,0.839000,-4.885000,-34.046000,-18.168000,29.240000
3.461,0.102000,-0.545000,0.787000,-6.191000,-23.687000,-20.099000,29.240000
3.468,0.108000,-0.593000,0.735000,-5.344000,-16.382000,-16.008000,29.280000
3.480,0.119000,-0.631000,0.689000,-0.122000,-8.748000,-11.198000,29.280000
3.492,0.105000,-0.647000,0.677000,4.832000,-1.954000,-4.969000,29.190000
3.499,0.072000,-0.641000,0.682000,9.450000,0.160000,2.939000,29.240000
3.512,0.042000,-0.617000,0.703000,13.802000,2.405000,8.809000,29.240000
3.519,0.013000,-0.599000,0.728000,17.504000,4.794000,12.489000,29.280000
3.531,-0.029000,-0.591000,0.750000,20.756000,4.908000,13.107000,29.280000
3.538,-0.051000,-0.576000,0.774000,24.153000,5.130000,12.710000,29.240000
3.550,-0.070000,-0.564000,0.770000,26.382000,5.473000,9.924000,29.240000
3.563,-0.081000,-0.554000,0.797000,25.893000,5.214000,6.840000,29.280000
3.570,-0.089000,-0.536000,0.824000,24.397000,2.725000,3.992000,29.190000
3.582,-0.079000,-0.506000,0.855000,21.649000,2.221000,1.702000,29.330000
3.589,-0.067000,-0.507000,0.860000,18.885000,1.313000,1.275000,29.240000
3.601,-0.032000,-0.538000,0.865000,19.359000,3.618000,1.954000,29.240000
3.608,-0.027000,-0.536000,0.854000,19.947000,7.237000,4.916000,29.280000
3.621,-0.036000,-0.522000,0.858000,21.115000,12.565000,4.908000,29.330000
3.634,-0.052000,-0.520000,0.854000,23.634000,19.611000,2.794000,29.240000
3.641,-0.074000,-0.522000,0.858000,25.740000,21.832000,-1.718000,29.280000
3.652,-0.077000,-0.499000,0.882000,27.130000,22.168000,-5.809000,29.280000
3.658,-0.108000,-0.483000,0.874000,27.412000,19.023000,-7.557000,29.330000
3.671,-0.088000,-0.447000,0.881000,26.336000,11.611000,-7.046000,29.240000
3.678,-0.094000,-0.496000,0.865000,22.336000,6.756000,-8.053000,29.190000
3.691,-0.069000,-0.508000,0.863000,21.160000,0.710000,-6.817000,29.280000
3.702,-0.053000,-0.516000,0.847000,22.794000,-1.702000,-6.885000,29.240000
3.709,-0.024000,-0.518000,0.842000,24.664000,-2.611000,-7.954000,29.240000
