time_sec,ax,ay,az,gx,gy,gz,temp_c
0.002,0.006000,-0.519000,0.809000,-3.641000,11.718000,-3.130000,31.400000
0.014,-0.036000,-0.501000,0.819000,-3.756000,11.450000,-0.618000,31.450000
0.021,-0.070000,-0.491000,0.826000,-7.382000,8.962000,2.107000,31.540000
0.034,-0.043000,-0.518000,0.807000,-7.992000,10.122000,2.885000,31.400000
0.040,-0.013000,-0.527000,0.768000,-8.542000,15.092000,3.672000,31.400000
0.053,-0.007000,-0.549000,0.743000,-5.954000,21.763000,5.221000,31.450000
0.065,-0.032000,-0.575000,0.743000,-2.214000,28.595000,6.748000,31.310000
0.072,-0.083000,-0.507000,0.780000,-1.130000,32.107000,9.382000,31.400000
0.084,-0.202000,-0.524000,0.810000,-3.191000,25.366000,12.695000,31.450000
0.091,-0.219000,-0.480000,0.833000,-7.573000,17.878000,13.565000,31.400000
0.104,-0.178000,-0.531000,0.792000,-12.557000,14.595000,15.015000,31.310000
0.115,-0.120000,-0.566000,0.761000,-12.336000,18.031000,11.626000,31.540000
0.122,-0.092000,-0.573000,0.731000,-11.290000,26.160000,9.763000,31.400000
0.134,-0.185000,-0.605000,0.704000,-10.328000,22.992000,10.725000,31.400000
0.141,-0.248000,-0.581000,0.729000,-5.748000,10.573000,8.618000,31.350000
0.153,-0.206000,-0.543000,0.748000,-5.733000,1.924000,4.924000,31.350000
0.160,-0.123000,-0.600000,0.773000,-2.229000,0.641000,1.084000,31.490000
0.173,-0.030000,-0.536000,0.829000,0.985000,11.641000,-2.000000,31.400000
0.185,-0.039000,-0.530000,0.838000,-2.160000,19.947000,-0.786000,31.540000
0.192,-0.097000,-0.524000,0.779000,-4.725000,21.527000,2.198000,31.310000
0.204,-0.138000,-0.560000,0.705000,-5.214000,15.847000,3.687000,31.400000
0.211,-0.147000,-0.585000,0.652000,0.313000,9.015000,1.191000,31.450000
0.224,-0.127000,-0.561000,0.625000,5.313000,4.046000,-1.954000,31.400000
0.232,-0.103000,-0.566000,0.594000,11.015000,-1.947000,-3.168000,31.400000
0.243,-0.083000,-0.556000,0.567000,17.733000,-8.931000,-4.038000,31.350000
0.254,-0.068000,-0.555000,0.533000,24.092000,-18.031000,-3.985000,31.450000
0.261,-0.025000,-0.559000,0.525000,31.252000,-28.115000,-5.802000,31.310000
0.273,0.052000,-0.550000,0.503000,38.298000,-36.824000,-10.275000,31.350000
0.281,0.093000,-0.576000,0.492000,45.481000,-50.328000,-9.527000,31.350000
0.292,0.170000,-0.572000,0.504000,57.527000,-62.412000,-3.000000,31.310000
0.304,0.222000,-0.524000,0.526000,62.603000,-75.244000,8.916000,31.490000
0.311,0.285000,-0.527000,0.517000,66.504000,-82.924000,23.458000,31.350000
0.323,0.364000,-0.534000,0.477000,72.664000,-77.771000,36.557000,31.400000
0.331,0.369000,-0.555000,0.484000,82.992000,-62.481000,46.489000,31.400000
0.342,0.257000,-0.491000,0.542000,96.069000,-44.595000,52.443000,31.450000
0.355,0.085000,-0.395000,0.634000,103.687000,-38.580000,54.679000,31.400000
0.361,-0.094000,-0.341000,0.767000,108.641000,-46.939000,53.405000,31.490000
0.373,-0.179000,-0.251000,0.845000,106.534000,-59.893000,49.718000,31.540000
0.380,-0.154000,-0.230000,0.850000,97.855000,-70.962000,44.191000,31.350000
0.392,-0.035000,-0.245000,0.776000,89.634000,-72.679000,39.275000,31.400000
0.404,0.092000,-0.282000,0.649000,83.847000,-62.687000,38.206000,31.450000
0.411,0.152000,-0.356000,0.510000,83.939000,-45.038000,40.534000,31.450000
0.423,0.162000,-0.401000,0.399000,91.947000,-25.359000,43.618000,31.400000
0.431,0.108000,-0.428000,0.358000,106.595000,-6.740000,46.107000,31.490000
0.443,0.016000,-0.370000,0.422000,128.458000,5.779000,40.557000,31.350000
0.454,-0.016000,-0.259000,0.507000,148.344000,15.725000,29.557000,31.400000
0.461,-0.098000,-0.094000,0.709000,152.374000,11.893000,26.817000,31.400000
0.473,-0.209000,-0.019000,0.928000,151.527000,-1.489000,29.076000,31.350000
0.479,-0.226000,0.108000,1.047000,140.382000,-24.321000,29.244000,31.400000
0.492,-0.132000,0.095000,1.089000,125.176000,-42.466000,29.511000,31.400000
0.504,0.032000,0.038000,1.077000,116.061000,-39.412000,30.420000,31.450000
0.511,0.182000,-0.004000,0.978000,108.321000,-17.893000,27.992000,31.260000
0.524,0.233000,-0.089000,0.894000,104.924000,12.702000,29.290000,31.310000
0.530,0.230000,-0.078000,0.824000,102.748000,46.313000,33.053000,31.450000
0.542,0.094000,0.001000,0.785000,96.809000,61.107000,42.893000,31.450000
0.554,-0.218000,-0.022000,0.853000,98.397000,42.252000,56.733000,31.490000
0.561,-0.397000,0.081000,0.897000,100.214000,6.878000,63.221000,31.400000
0.574,-0.412000,0.124000,0.896000,98.168000,-37.405000,60.519000,31.450000
0.581,-0.290000,0.094000,0.931000,98.901000,-65.618000,53.832000,31.400000
0.592,-0.075000,0.108000,0.923000,101.832000,-65.985000,39.687000,31.490000
0.605,0.145000,0.119000,0.941000,102.084000,-41.878000,29.031000,31.350000
0.611,0.279000,0.112000,0.901000,99.595000,2.916000,23.427000,31.450000
0.624,0.216000,0.211000,0.891000,92.763000,38.931000,28.191000,31.400000
0.631,-0.068000,0.209000,0.895000,89.137000,45.519000,36.992000,31.350000
0.643,-0.341000,0.211000,0.859000,89.611000,15.939000,41.389000,31.450000
0.649,-0.597000,0.189000,0.975000,100.053000,-47.557000,47.298000,31.400000
0.662,-0.518000,0.333000,1.094000,110.534000,-98.618000,35.794000,31.310000
0.675,-0.243000,0.339000,1.128000,115.893000,-114.779000,12.107000,31.450000
0.683,0.088000,0.328000,1.132000,118.656000,-92.473000,-6.939000,31.400000
0.693,0.292000,0.309000,1.067000,115.221000,-52.649000,-14.443000,31.490000
0.705,0.346000,0.260000,0.921000,109.076000,-6.405000,-14.344000,31.400000
0.712,0.269000,0.217000,0.698000,100.038000,26.153000,-7.710000,31.450000
0.724,0.031000,0.131000,0.490000,98.977000,23.649000,4.809000,31.400000
0.732,-0.252000,0.131000,0.418000,107.779000,-19.198000,21.863000,31.540000
0.743,-0.350000,0.297000,0.568000,121.725000,-83.275000,26.473000,31.350000
0.749,-0.124000,0.442000,0.825000,130.351000,-125.176000,17.130000,31.490000
0.762,0.221000,0.559000,1.092000,135.382000,-122.466000,-4.519000,31.400000
0.774,0.519000,0.649000,1.232000,130.122000,-83.107000,-18.061000,31.450000
0.781,0.655000,0.611000,1.242000,120.290000,-28.847000,-19.351000,31.400000
0.793,0.688000,0.539000,1.129000,102.366000,27.756000,-4.611000,31.400000
0.800,0.442000,0.557000,1.017000,81.618000,62.122000,17.969000,31.350000
0.812,0.049000,0.604000,0.978000,58.084000,53.122000,38.076000,31.450000
0.825,-0.186000,0.553000,0.880000,41.939000,16.740000,48.985000,31.400000
0.832,-0.174000,0.420000,0.753000,44.275000,-17.954000,47.733000,31.400000
0.844,0.015000,0.346000,0.697000,65.489000,-25.176000,36.435000,31.450000
0.851,0.158000,0.394000,0.740000,89.420000,-8.511000,20.244000,31.400000
0.863,0.214000,0.494000,0.829000,102.634000,14.679000,9.634000,31.400000
0.872,0.249000,0.623000,0.928000,102.565000,38.748000,6.206000,31.350000
0.883,0.194000,0.749000,1.036000,93.733000,52.359000,8.275000,31.400000
0.895,0.009000,0.817000,1.153000,76.534000,39.313000,16.885000,31.490000
0.902,-0.046000,0.811000,1.148000,55.038000,10.412000,25.282000,31.450000
0.914,0.068000,0.714000,1.045000,40.489000,-14.389000,35.969000,31.450000
0.921,0.191000,0.584000,0.896000,34.305000,-24.115000,45.817000,31.490000
0.933,0.285000,0.444000,0.769000,40.252000,-14.366000,54.679000,31.450000
0.941,0.302000,0.420000,0.749000,54.817000,8.840000,56.748000,31.450000
0.952,0.213000,0.509000,0.807000,71.969000,33.870000,48.321000,31.490000
0.965,0.080000,0.681000,0.915000,75.710000,48.656000,36.427000,31.310000
0.972,-0.039000,0.713000,0.951000,72.244000,48.359000,27.313000,31.450000
0.985,-0.145000,0.736000,0.955000,61.710000,24.595000,26.328000,31.400000
0.991,-0.086000,0.727000,0.909000,44.450000,-7.618000,29.359000,31.490000
1.003,0.022000,0.579000,0.826000,38.466000,-31.313000,31.802000,31.450000
1.010,0.182000,0.566000,0.804000,44.611000,-35.282000,32.550000,31.490000
1.023,0.276000,0.589000,0.809000,51.076000,-22.069000,30.137000,31.400000
1.036,0.286000,0.582000,0.819000,61.397000,-2.748000,26.221000,31.450000
1.042,0.298000,0.589000,0.781000,68.977000,19.023000,23.794000,31.450000
1.054,0.212000,0.627000,0.763000,72.634000,34.969000,21.191000,31.400000
1.061,0.021000,0.710000,0.762000,67.328000,23.603000,21.321000,31.450000
1.074,-0.129000,0.710000,0.749000,56.260000,-13.321000,22.237000,31.450000
1.081,-0.069000,0.715000,0.770000,44.924000,-52.748000,21.863000,31.400000
1.092,0.148000,0.715000,0.790000,36.748000,-66.733000,17.160000,31.400000
1.105,0.343000,0.645000,0.779000,38.160000,-53.145000,13.351000,31.540000
1.112,0.440000,0.622000,0.744000,43.664000,-25.092000,13.031000,31.400000
1.124,0.421000,0.617000,0.696000,50.061000,3.290000,15.908000,31.400000
1.131,0.294000,0.619000,0.648000,56.557000,19.046000,16.962000,31.450000
1.143,0.205000,0.623000,0.601000,60.664000,20.420000,15.802000,31.350000
1.150,0.000000,0.637000,0.582000,61.840000,-6.206000,18.718000,31.400000
1.162,-0.042000,0.695000,0.616000,58.679000,-46.260000,15.344000,31.450000
1.175,0.075000,0.694000,0.625000,53.901000,-70.817000,9.618000,31.350000
1.182,0.216000,0.625000,0.599000,56.389000,-73.733000,4.756000,31.400000
1.194,0.317000,0.604000,0.581000,63.481000,-58.160000,0.321000,31.400000
1.201,0.349000,0.648000,0.583000,72.740000,-35.420000,-2.885000,31.450000
1.213,0.373000,0.724000,0.635000,76.176000,-9.992000,-6.366000,31.400000
1.222,0.400000,0.740000,0.607000,79.107000,14.893000,-9.679000,31.310000
1.233,0.282000,0.771000,0.583000,78.870000,22.145000,-6.321000,31.490000
1.245,0.129000,0.836000,0.580000,70.802000,4.267000,-1.550000,31.350000
1.252,0.127000,0.796000,0.499000,61.359000,-21.305000,1.466000,31.490000
1.264,0.156000,0.738000,0.442000,62.298000,-42.206000,2.198000,31.450000
1.272,0.245000,0.758000,0.447000,72.832000,-48.832000,2.397000,31.450000
1.284,0.301000,0.816000,0.484000,81.847000,-43.565000,1.344000,31.400000
1.291,0.369000,0.881000,0.531000,88.588000,-27.786000,-2.687000,31.490000
1.303,0.365000,0.940000,0.559000,91.206000,-8.725000,-5.916000,31.350000
1.310,0.316000,0.953000,0.573000,90.847000,2.916000,-8.473000,31.400000
1.323,0.327000,0.954000,0.543000,86.198000,10.931000,-8.924000,31.400000
1.336,0.195000,0.921000,0.498000,78.504000,1.244000,-5.435000,31.450000
1.342,0.142000,0.915000,0.472000,72.145000,-19.924000,-4.344000,31.400000
1.354,0.183000,0.914000,0.449000,67.275000,-39.328000,-3.313000,31.490000
1.361,0.291000,0.935000,0.453000,67.198000,-44.450000,-0.672000,31.400000
1.374,0.406000,0.970000,0.493000,70.718000,-31.824000,0.191000,31.450000
1.381,0.412000,0.925000,0.494000,74.260000,-9.634000,-1.160000,31.400000
1.393,0.386000,0.918000,0.462000,74.557000,12.611000,-0.947000,31.450000
1.405,0.277000,0.911000,0.442000,72.191000,21.336000,1.672000,31.450000
1.412,0.150000,0.971000,0.438000,69.137000,11.313000,4.618000,31.400000
1.424,0.093000,1.057000,0.454000,61.885000,-11.221000,8.046000,31.310000
1.432,0.120000,1.037000,0.471000,56.000000,-31.634000,7.282000,31.450000
1.444,0.268000,1.085000,0.465000,48.046000,-34.252000,7.214000,31.400000
1.451,0.267000,1.004000,0.416000,38.107000,-30.641000,5.267000,31.400000
1.463,0.291000,0.932000,0.336000,40.122000,-24.267000,-2.198000,31.350000
1.470,0.301000,0.895000,0.271000,43.031000,-16.977000,-9.359000,31.350000
1.483,0.390000,0.845000,0.238000,50.267000,-5.405000,-14.229000,31.490000
1.494,0.527000,0.857000,0.227000,64.061000,17.405000,-8.885000,31.490000
1.501,0.393000,0.948000,0.298000,71.519000,29.931000,5.748000,31.350000
1.514,0.165000,1.093000,0.362000,69.550000,21.290000,18.924000,31.400000
1.521,-0.133000,1.129000,0.306000,43.382000,-21.443000,25.298000,31.540000
1.533,-0.162000,1.066000,0.253000,24.992000,-71.359000,19.985000,31.450000
1.545,0.091000,0.988000,0.219000,14.916000,-99.015000,12.687000,31.400000
1.552,0.433000,0.875000,0.216000,23.168000,-89.908000,6.374000,31.490000
1.565,0.660000,0.821000,0.279000,45.221000,-45.939000,4.076000,31.450000
1.572,0.685000,0.925000,0.373000,60.221000,4.763000,9.328000,31.490000
1.584,0.514000,0.997000,0.408000,62.244000,38.603000,19.198000,31.400000
1.592,0.211000,1.161000,0.346000,40.466000,34.595000,30.573000,31.350000
1.603,-0.084000,1.038000,0.249000,25.153000,-3.489000,24.481000,31.450000
1.610,-0.081000,0.973000,0.168000,21.214000,-47.076000,19.779000,31.400000
1.623,0.041000,0.856000,0.166000,30.908000,-74.641000,11.962000,31.400000
1.635,0.277000,0.807000,0.280000,51.382000,-69.725000,2.198000,31.350000
1.642,0.361000,0.897000,0.429000,62.947000,-50.145000,-4.305000,31.400000
1.654,0.366000,1.005000,0.492000,60.160000,-32.779000,-8.198000,31.490000
1.661,0.348000,1.153000,0.436000,36.344000,-23.809000,-5.191000,31.350000
1.674,0.329000,0.986000,0.271000,21.634000,-26.015000,-8.656000,31.490000
1.686,0.305000,0.864000,0.179000,24.603000,-35.847000,-10.191000,31.310000
1.693,0.337000,0.794000,0.206000,39.351000,-47.603000,-11.634000,31.450000
1.704,0.398000,0.826000,0.348000,50.847000,-51.435000,-15.221000,31.450000
1.711,0.427000,0.951000,0.489000,46.573000,-50.618000,-10.504000,31.490000
1.723,0.467000,1.049000,0.542000,26.542000,-47.786000,-6.145000,31.350000
1.732,0.529000,1.161000,0.429000,-8.687000,-44.603000,3.237000,31.450000
1.743,0.541000,0.932000,0.138000,-25.954000,-43.656000,9.733000,31.400000
1.755,0.604000,0.705000,-0.072000,-12.458000,-35.435000,11.809000,31.400000
1.761,0.576000,0.647000,-0.083000,19.931000,-26.878000,22.382000,31.450000
1.774,0.459000,0.776000,0.112000,46.069000,-17.321000,27.519000,31.490000
1.782,0.347000,0.918000,0.360000,59.115000,-9.305000,31.137000,31.400000
1.793,0.217000,1.085000,0.546000,45.351000,-7.496000,29.557000,31.350000
1.800,0.233000,1.183000,0.593000,14.962000,-3.565000,18.053000,31.450000
1.812,0.315000,1.182000,0.466000,-24.000000,2.565000,10.718000,31.400000
1.825,0.354000,0.955000,0.225000,-39.878000,7.282000,7.580000,31.350000
1.832,0.389000,0.801000,0.094000,-33.328000,9.603000,7.718000,31.450000
1.844,0.422000,0.795000,0.099000,-16.702000,11.527000,11.863000,31.310000
1.851,0.383000,0.883000,0.171000,-4.756000,13.611000,19.183000,31.400000
1.863,0.315000,0.976000,0.245000,-3.969000,14.931000,25.977000,31.350000
1.872,0.261000,1.014000,0.265000,-12.947000,16.328000,26.947000,31.400000
1.883,0.286000,1.014000,0.224000,-21.321000,20.687000,21.947000,31.400000
1.895,0.296000,0.911000,0.172000,-21.885000,24.595000,19.137000,31.310000
1.902,0.289000,0.879000,0.163000,-17.443000,26.244000,14.053000,31.450000
1.914,0.241000,0.858000,0.227000,-8.740000,21.092000,8.130000,31.400000
1.922,0.240000,0.998000,0.339000,-9.580000,13.595000,6.511000,31.450000
1.934,0.227000,1.007000,0.396000,-22.481000,4.321000,3.160000,31.350000
1.941,0.333000,0.999000,0.386000,-36.183000,3.679000,-0.809000,31.310000
1.953,0.457000,0.966000,0.335000,-47.252000,10.733000,1.328000,31.310000
1.960,0.519000,0.912000,0.284000,-50.779000,24.771000,4.405000,31.450000
1.973,0.526000,0.901000,0.254000,-50.435000,36.359000,11.565000,31.400000
1.985,0.432000,0.879000,0.261000,-47.733000,38.626000,19.557000,31.400000
1.992,0.329000,0.897000,0.325000,-43.267000,33.534000,23.557000,31.350000
2.004,0.295000,1.076000,0.390000,-51.412000,26.802000,26.267000,31.450000
2.010,0.278000,1.110000,0.371000,-68.511000,20.015000,25.458000,31.400000
2.023,0.305000,1.039000,0.290000,-78.473000,18.412000,19.160000,31.490000
2.035,0.362000,0.990000,0.240000,-80.321000,19.641000,13.107000,31.450000
2.042,0.427000,0.988000,0.292000,-76.489000,20.069000,14.450000,31.400000
2.054,0.451000,1.037000,0.383000,-75.908000,19.298000,21.565000,31.310000
2.061,0.425000,1.014000,0.474000,-71.389000,18.359000,32.527000,31.350000
2.074,0.376000,1.010000,0.543000,-68.206000,22.374000,42.450000,31.400000
2.081,0.370000,0.979000,0.545000,-65.847000,38.115000,47.206000,31.400000
2.093,0.365000,1.010000,0.562000,-78.374000,53.198000,41.794000,31.350000
2.105,0.271000,0.934000,0.517000,-95.969000,57.885000,32.901000,31.400000
2.112,0.250000,0.857000,0.432000,-108.008000,58.046000,20.015000,31.400000
2.125,0.231000,0.760000,0.361000,-108.641000,53.328000,3.427000,31.350000
2.131,0.260000,0.692000,0.400000,-100.496000,40.649000,-5.687000,31.350000
2.143,0.368000,0.797000,0.469000,-94.069000,34.244000,-4.015000,31.400000
2.149,0.415000,0.878000,0.556000,-99.519000,31.252000,-3.183000,31.400000
2.162,0.456000,0.936000,0.577000,-108.015000,33.176000,-1.115000,31.350000
2.176,0.452000,0.927000,0.521000,-117.145000,35.740000,-2.840000,31.400000
2.181,0.401000,0.837000,0.477000,-119.427000,37.015000,-5.137000,31.400000
2.193,0.367000,0.800000,0.463000,-115.496000,34.344000,-8.992000,31.350000
2.200,0.261000,0.794000,0.537000,-112.252000,26.458000,-12.252000,31.400000
2.212,0.237000,0.811000,0.658000,-111.351000,15.939000,-19.992000,31.400000
2.225,0.295000,0.843000,0.727000,-112.344000,13.244000,-26.809000,31.450000
2.232,0.410000,0.859000,0.726000,-117.412000,19.542000,-34.672000,31.350000
2.243,0.494000,0.845000,0.703000,-120.206000,31.870000,-37.221000,31.400000
2.255,0.541000,0.819000,0.652000,-121.687000,44.611000,-34.344000,31.450000
2.262,0.513000,0.743000,0.627000,-121.450000,54.359000,-29.802000,31.450000
2.275,0.446000,0.710000,0.658000,-115.328000,55.878000,-25.740000,31.310000
2.281,0.394000,0.741000,0.709000,-108.229000,53.252000,-16.374000,31.400000
2.293,0.280000,0.774000,0.739000,-108.359000,44.977000,-10.603000,31.350000
2.305,0.230000,0.812000,0.767000,-110.878000,36.794000,-12.725000,31.400000
2.312,0.215000,0.798000,0.719000,-113.748000,32.664000,-20.122000,31.400000
2.325,0.182000,0.737000,0.697000,-114.359000,30.565000,-27.084000,31.260000
2.332,0.181000,0.716000,0.671000,-116.519000,26.595000,-32.969000,31.400000
2.343,0.170000,0.673000,0.663000,-116.855000,20.870000,-38.924000,31.310000
2.355,0.219000,0.645000,0.740000,-110.802000,15.122000,-45.229000,31.350000
2.361,0.353000,0.722000,0.750000,-106.695000,18.733000,-46.832000,31.350000
2.375,0.402000,0.667000,0.755000,-100.863000,29.504000,-41.931000,31.490000
2.381,0.396000,0.649000,0.729000,-95.656000,43.695000,-32.832000,31.450000
2.392,0.350000,0.643000,0.684000,-93.481000,53.260000,-28.534000,31.450000
2.404,0.268000,0.569000,0.664000,-89.168000,55.511000,-28.580000,31.400000
2.411,0.179000,0.596000,0.694000,-90.565000,45.656000,-28.580000,31.400000
2.424,0.057000,0.531000,0.749000,-92.137000,22.962000,-28.023000,31.350000
2.431,0.030000,0.496000,0.848000,-90.679000,-1.725000,-29.130000,31.490000
2.443,0.174000,0.554000,0.899000,-92.252000,-11.733000,-29.771000,31.400000
2.455,0.295000,0.551000,0.855000,-95.344000,-2.649000,-25.420000,31.350000
2.461,0.341000,0.500000,0.759000,-91.809000,19.244000,-21.145000,31.490000
2.474,0.298000,0.423000,0.641000,-84.313000,43.420000,-16.893000,31.310000
2.481,0.091000,0.332000,0.636000,-72.344000,46.855000,-16.282000,31.350000
2.493,-0.022000,0.362000,0.769000,-59.649000,34.954000,-21.504000,31.540000
2.505,-0.045000,0.412000,0.936000,-53.580000,19.328000,-30.740000,31.490000
2.512,0.100000,0.601000,1.003000,-58.786000,15.893000,-38.313000,31.350000
2.525,0.165000,0.573000,0.937000,-69.588000,24.115000,-38.427000,31.450000
2.532,0.140000,0.431000,0.816000,-69.046000,31.443000,-36.122000,31.400000
2.543,0.094000,0.388000,0.742000,-61.458000,34.931000,-37.359000,31.400000
2.555,0.040000,0.296000,0.720000,-52.374000,28.710000,-39.809000,31.450000
2.561,0.008000,0.326000,0.864000,-44.542000,19.176000,-43.305000,31.400000
2.575,0.088000,0.482000,0.979000,-50.137000,12.695000,-45.763000,31.400000
2.581,0.105000,0.457000,1.008000,-61.985000,9.084000,-43.687000,31.350000
2.593,0.182000,0.452000,0.965000,-69.588000,13.130000,-40.939000,31.400000
2.605,0.231000,0.366000,0.805000,-70.107000,25.885000,-32.756000,31.210000
2.612,0.191000,0.304000,0.721000,-65.031000,39.901000,-26.076000,31.450000
2.625,0.062000,0.319000,0.720000,-59.282000,42.618000,-21.527000,31.350000
2.632,-0.062000,0.407000,0.903000,-62.115000,27.824000,-22.298000,31.310000
2.643,-0.140000,0.472000,1.150000,-79.244000,8.046000,-31.435000,31.350000
2.655,-0.049000,0.510000,1.298000,-97.061000,-10.443000,-41.038000,31.350000
2.662,0.202000,0.449000,1.176000,-115.794000,-5.031000,-43.740000,31.490000
2.674,0.361000,0.167000,0.878000,-109.031000,19.450000,-34.092000,31.400000
2.682,0.341000,0.024000,0.638000,-84.580000,49.901000,-18.443000,31.350000
2.693,0.141000,0.016000,0.589000,-62.435000,73.214000,-9.443000,31.400000
2.705,-0.098000,0.081000,0.665000,-44.756000,79.573000,-11.496000,31.400000
2.712,-0.349000,0.169000,0.882000,-41.053000,57.298000,-22.672000,31.350000
2.724,-0.440000,0.233000,1.102000,-47.977000,13.466000,-38.206000,31.350000
2.732,-0.147000,0.281000,1.090000,-59.015000,-15.748000,-53.420000,31.400000
2.743,0.220000,0.125000,0.846000,-59.076000,-12.023000,-54.145000,31.350000
2.755,0.349000,-0.019000,0.674000,-46.603000,9.771000,-41.595000,31.450000
2.761,0.231000,0.033000,0.705000,-34.092000,30.542000,-30.992000,31.400000
2.775,0.035000,0.081000,0.843000,-27.374000,39.763000,-29.969000,31.350000
2.781,-0.103000,0.115000,1.043000,-28.023000,35.504000,-34.084000,31.350000
2.793,-0.172000,0.163000,1.245000,-34.374000,21.046000,-40.885000,31.490000
2.805,-0.050000,0.194000,1.299000,-41.779000,10.542000,-44.206000,31.310000
2.811,0.154000,0.177000,1.133000,-49.168000,18.130000,-40.565000,31.350000
2.825,0.167000,0.061000,0.887000,-49.290000,32.435000,-30.748000,31.400000
2.831,0.004000,-0.034000,0.772000,-41.817000,35.412000,-23.603000,31.310000
2.843,-0.130000,0.024000,0.823000,-33.588000,29.160000,-23.504000,31.450000
2.854,-0.298000,0.066000,1.010000,-30.580000,15.366000,-32.809000,31.450000
2.861,-0.282000,0.131000,1.195000,-30.534000,-1.137000,-45.580000,31.400000
2.874,-0.031000,0.251000,1.195000,-44.252000,-2.908000,-50.473000,31.350000
2.881,0.127000,0.107000,1.008000,-52.824000,8.458000,-45.534000,31.450000
2.893,0.132000,0.005000,0.819000,-52.412000,17.710000,-34.382000,31.400000
2.905,0.042000,-0.029000,0.729000,-49.053000,21.267000,-26.313000,31.400000
2.911,-0.108000,-0.009000,0.797000,-44.626000,15.847000,-25.191000,31.450000
2.924,-0.118000,0.076000,0.869000,-43.939000,10.473000,-29.137000,31.400000
2.931,-0.220000,-0.001000,0.936000,-39.565000,3.557000,-32.626000,31.400000
2.942,-0.247000,0.102000,1.060000,-35.206000,-5.885000,-42.756000,31.350000
2.955,-0.037000,0.155000,0.995000,-45.473000,-3.656000,-50.160000,31.350000
2.961,0.069000,0.000000,0.838000,-46.328000,5.298000,-45.298000,31.310000
2.975,0.081000,-0.056000,0.802000,-39.031000,15.412000,-38.893000,31.350000
2.982,0.083000,-0.047000,0.833000,-35.985000,28.534000,-31.817000,31.450000
2.993,0.025000,-0.066000,0.878000,-33.153000,41.733000,-25.817000,31.400000
3.004,-0.053000,-0.025000,0.970000,-32.313000,52.985000,-24.305000,31.310000
3.011,-0.161000,0.025000,0.992000,-33.870000,58.786000,-25.229000,31.350000
3.023,-0.427000,0.058000,1.048000,-37.809000,40.237000,-27.763000,31.400000
3.035,-0.473000,0.121000,1.023000,-45.641000,9.298000,-35.023000,31.400000
3.042,-0.333000,0.001000,0.928000,-45.527000,-10.290000,-39.405000,31.350000
3.053,-0.209000,-0.034000,0.928000,-39.847000,-14.634000,-44.267000,31.350000
3.060,-0.124000,0.006000,0.993000,-40.863000,-5.931000,-47.038000,31.310000
3.073,-0.022000,-0.020000,0.977000,-44.252000,7.084000,-43.641000,31.490000
3.085,-0.024000,-0.086000,0.969000,-46.519000,18.405000,-36.947000,31.350000
3.092,-0.023000,-0.084000,0.979000,-44.435000,29.832000,-34.069000,31.400000
3.103,0.000000,-0.079000,0.905000,-43.985000,44.046000,-30.489000,31.400000
3.109,-0.135000,-0.131000,0.897000,-43.137000,48.031000,-26.779000,31.260000
3.122,-0.296000,-0.100000,0.939000,-42.550000,32.527000,-27.305000,31.400000
3.135,-0.276000,-0.054000,0.931000,-49.832000,9.115000,-29.252000,31.310000
3.142,-0.187000,-0.118000,0.890000,-53.939000,-8.305000,-31.244000,31.450000
3.152,-0.059000,-0.156000,0.873000,-50.893000,-12.534000,-35.305000,31.450000
3.164,0.075000,-0.198000,0.845000,-49.053000,-5.122000,-35.527000,31.400000
3.172,0.190000,-0.176000,0.861000,-45.740000,11.954000,-31.504000,31.400000
3.184,0.237000,-0.166000,0.849000,-45.557000,35.962000,-25.985000,31.350000
3.191,0.113000,-0.214000,0.835000,-42.107000,47.885000,-18.267000,31.400000
3.202,-0.081000,-0.132000,0.851000,-44.160000,37.595000,-10.000000,31.400000
3.214,-0.257000,-0.158000,0.847000,-48.656000,9.779000,-5.153000,31.400000
3.222,-0.326000,-0.170000,0.920000,-45.931000,-20.832000,-7.634000,31.350000
3.234,-0.203000,-0.135000,0.982000,-45.122000,-35.458000,-19.153000,31.310000
3.245,-0.028000,-0.170000,1.006000,-46.817000,-28.389000,-29.969000,31.350000
3.251,0.193000,-0.191000,0.996000,-46.748000,-1.298000,-33.992000,31.350000
3.264,0.287000,-0.255000,0.876000,-48.496000,33.855000,-30.092000,31.310000
3.272,0.230000,-0.333000,0.810000,-44.008000,63.595000,-23.366000,31.400000
3.284,0.099000,-0.312000,0.737000,-41.031000,80.519000,-15.672000,31.350000
3.295,-0.177000,-0.315000,0.693000,-43.092000,65.931000,-3.916000,31.400000
3.301,-0.403000,-0.299000,0.701000,-41.336000,24.656000,3.718000,31.310000
3.314,-0.453000,-0.282000,0.722000,-41.427000,-19.840000,1.443000,31.450000
3.322,-0.416000,-0.284000,0.802000,-40.137000,-54.725000,-6.489000,31.350000
3.332,-0.268000,-0.240000,0.911000,-37.481000,-68.237000,-21.824000,31.400000
3.344,0.007000,-0.210000,0.933000,-43.221000,-57.275000,-29.924000,31.400000
3.351,0.287000,-0.317000,0.814000,-47.992000,-18.687000,-31.748000,31.450000
3.363,0.346000,-0.451000,0.662000,-45.481000,28.122000,-27.122000,31.400000
3.375,0.247000,-0.510000,0.630000,-39.573000,64.740000,-21.015000,31.400000
3.382,0.144000,-0.470000,0.651000,-29.779000,93.221000,-18.542000,31.450000
3.394,-0.099000,-0.385000,0.731000,-22.702000,98.092000,-14.687000,31.400000
3.400,-0.556000,-0.258000,0.883000,-33.061000,49.802000,-0.931000,31.400000
3.413,-0.669000,-0.253000,0.894000,-50.855000,-18.145000,5.008000,31.350000
3.425,-0.532000,-0.328000,0.882000,-58.221000,-68.885000,2.840000,31.350000
3.432,-0.255000,-0.304000,0.859000,-62.374000,-84.534000,-2.969000,31.310000
3.443,0.023000,-0.411000,0.803000,-60.733000,-64.916000,-11.450000,31.350000
3.450,0.168000,-0.483000,0.823000,-48.328000,-23.817000,-19.237000,31.350000
3.462,0.201000,-0.427000,0.866000,-40.939000,21.511000,-23.153000,31.400000
3.475,0.085000,-0.388000,0.901000,-38.985000,53.115000,-22.603000,31.400000
3.481,-0.152000,-0.330000,0.898000,-42.366000,56.466000,-14.160000,31.450000
3.493,-0.394000,-0.378000,0.768000,-48.634000,26.420000,3.504000,31.400000
3.505,-0.500000,-0.452000,0.693000,-50.626000,-19.847000,16.374000,31.310000
3.512,-0.422000,-0.458000,0.631000,-46.458000,-48.924000,16.725000,31.350000
3.525,-0.286000,-0.468000,0.642000,-39.397000,-54.695000,4.092000,31.310000
3.531,-0.092000,-0.456000,0.690000,-27.351000,-35.733000,-12.702000,31.310000
3.543,-0.007000,-0.468000,0.712000,-21.664000,-6.656000,-24.237000,31.350000
3.554,0.021000,-0.519000,0.781000,-11.351000,20.748000,-33.023000,31.400000
3.561,0.035000,-0.438000,0.861000,-6.481000,45.672000,-36.481000,31.310000
3.573,-0.116000,-0.387000,0.911000,-13.229000,53.802000,-31.588000,31.450000
3.580,-0.283000,-0.403000,0.927000,-22.298000,39.191000,-21.198000,31.310000
3.592,-0.300000,-0.405000,0.846000,-31.756000,19.901000,-16.015000,31.310000
3.604,-0.248000,-0.515000,0.791000,-32.519000,10.237000,-16.313000,31.350000
3.610,-0.175000,-0.522000,0.799000,-28.389000,13.099000,-21.137000,31.400000
3.623,-0.164000,-0.500000,0.841000,-25.901000,19.863000,-26.786000,31.310000
3.635,-0.152000,-0.494000,0.861000,-26.160000,25.351000,-29.145000,31.350000
3.643,-0.137000,-0.484000,0.861000,-28.099000,30.145000,-29.969000,31.400000
3.653,-0.148000,-0.454000,0.840000,-33.947000,31.947000,-30.000000,31.310000
3.659,-0.182000,-0.504000,0.797000,-38.405000,25.382000,-28.710000,31.350000
3.673,-0.147000,-0.495000,0.749000,-42.244000,16.313000,-27.786000,31.350000
3.684,-0.095000,-0.531000,0.668000,-45.344000,7.672000,-25.298000,31.400000
3.692,-0.052000,-0.556000,0.622000,-44.947000,3.450000,-24.511000,31.260000
3.703,-0.009000,-0.602000,0.588000,-41.145000,1.870000,-21.069000,31.350000
3.715,0.010000,-0.619000,0.571000,-34.656000,0.794000,-15.534000,31.400000
3.722,0.002000,-0.610000,0.593000,-28.305000,-0.160000,-10.939000,31.310000
3.734,-0.033000,-0.605000,0.626000,-22.534000,-1.977000,-5.656000,31.350000
3.741,-0.076000,-0.605000,0.634000,-17.351000,-6.366000,-0.076000,31.400000
3.753,-0.087000,-0.572000,0.642000,-11.939000,-9.176000,1.969000,31.310000
3.765,-0.022000,-0.559000,0.630000,-8.015000,-2.916000,0.588000,31.350000
3.773,0.033000,-0.573000,0.626000,-1.267000,13.076000,-3.618000,31.490000
3.785,-0.025000,-0.525000,0.638000,1.008000,27.168000,-7.168000,31.400000
3.793,-0.127000,-0.510000,0.643000,-1.397000,28.160000,-8.366000,31.260000
3.803,-0.197000,-0.541000,0.625000,-1.626000,14.527000,-5.855000,31.350000
3.810,-0.266000,-0.548000,0.592000,-0.557000,-5.725000,-1.656000,31.400000
3.823,-0.221000,-0.625000,0.547000,6.435000,-22.550000,-0.160000,31.450000
3.834,-0.147000,-0.632000,0.547000,15.756000,-28.099000,1.252000,31.350000
3.842,-0.096000,-0.647000,0.593000,25.916000,-24.206000,-1.046000,31.400000
3.853,-0.046000,-0.594000,0.689000,32.840000,-13.763000,-3.893000,31.310000
3.860,-0.037000,-0.581000,0.770000,34.489000,0.069000,-4.328000,31.450000
3.873,-0.048000,-0.539000,0.856000,31.916000,11.832000,-1.885000,31.400000
3.885,-0.143000,-0.497000,0.913000,24.710000,15.336000,2.313000,31.400000
3.892,-0.191000,-0.505000,0.928000,17.282000,9.603000,3.794000,31.350000
3.904,-0.206000,-0.509000,0.883000,10.519000,0.305000,4.855000,31.450000
3.911,-0.168000,-0.531000,0.833000,6.427000,-8.573000,4.756000,31.400000
3.923,-0.097000,-0.563000,0.774000,6.924000,-10.870000,3.412000,31.350000
3.931,-0.039000,-0.580000,0.741000,9.252000,-6.534000,2.580000,31.350000
3.943,-0.010000,-0.608000,0.750000,15.992000,1.305000,4.466000,31.400000
3.955,-0.046000,-0.581000,0.804000,21.763000,7.954000,7.405000,31.310000
3.962,-0.133000,-0.492000,0.880000,18.908000,6.237000,9.672000,31.350000
3.975,-0.239000,-0.467000,0.923000,10.427000,-8.328000,13.908000,31.490000
3.981,-0.245000,-0.501000,0.891000,5.260000,-23.198000,14.847000,31.400000
3.993,-0.154000,-0.533000,0.857000,5.344000,-25.267000,11.115000,31.400000
4.005,-0.083000,-0.543000,0.844000,7.214000,-16.282000,5.641000,31.450000
4.012,-0.074000,-0.558000,0.832000,8.481000,-5.130000,4.954000,31.400000
4.026,-0.096000,-0.513000,0.809000,8.939000,5.382000,2.588000,31.350000
4.032,-0.146000,-0.501000,0.794000,6.802000,10.679000,-1.740000,31.450000
4.044,-0.161000,-0.505000,0.780000,6.802000,11.969000,-5.824000,31.400000
4.051,-0.168000,-0.520000,0.792000,6.450000,9.992000,-10.969000,31.310000
4.063,-0.151000,-0.522000,0.782000,7.191000,6.290000,-11.489000,31.350000
4.071,-0.152000,-0.549000,0.797000,8.237000,2.206000,-8.305000,31.310000
4.083,-0.139000,-0.539000,0.780000,8.405000,-3.130000,-4.176000,31.310000
4.094,-0.134000,-0.553000,0.784000,8.031000,-5.626000,-0.046000,31.350000
4.101,-0.124000,-0.536000,0.766000,7.748000,-6.664000,0.382000,31.400000
4.114,-0.110000,-0.552000,0.749000,10.031000,-5.710000,-1.878000,31.310000
4.122,-0.112000,-0.542000,0.786000,12.450000,-6.084000,-5.084000,31.400000
4.134,-0.094000,-0.524000,0.827000,13.740000,-5.931000,-7.122000,31.450000
4.145,-0.052000,-0.551000,0.841000,15.450000,-1.481000,-5.634000,31.310000
4.151,-0.064000,-0.535000,0.848000,15.595000,4.382000,-2.504000,31.350000
4.164,-0.120000,-0.507000,0.850000,12.000000,5.580000,-0.008000,31.350000
4.172,-0.130000,-0.509000,0.824000,8.740000,4.733000,0.092000,31.400000
4.183,-0.132000,-0.518000,0.802000,8.550000,4.405000,-0.954000,31.400000
4.191,-0.116000,-0.503000,0.784000,7.489000,4.252000,-1.473000,31.450000
4.202,-0.077000,-0.535000,0.751000,11.359000,5.611000,-0.725000,31.400000
4.215,-0.114000,-0.548000,0.751000,15.733000,5.779000,1.939000,31.400000
4.222,-0.112000,-0.514000,0.783000,18.084000,5.420000,0.863000,31.450000
4.234,-0.119000,-0.478000,0.839000,17.557000,3.832000,-0.840000,31.400000
4.242,-0.106000,-0.443000,0.878000,16.137000,3.374000,-3.130000,31.310000
4.253,-0.115000,-0.425000,0.919000,11.885000,0.183000,-3.618000,31.490000
4.260,-0.098000,-0.431000,0.898000,5.008000,-2.771000,-2.191000,31.450000
4.272,-0.069000,-0.505000,0.853000,3.023000,-3.053000,1.511000,31.400000
