time_sec,ax,ay,az,gx,gy,gz,temp_c
0.013,0.034000,-0.563000,0.784000,-16.221000,9.824000,3.550000,30.180000
0.018,0.029000,-0.591000,0.754000,-17.802000,9.405000,2.939000,30.130000
0.025,0.056000,-0.612000,0.736000,-18.137000,10.817000,1.137000,30.130000
0.037,0.055000,-0.649000,0.697000,-14.947000,12.137000,-2.137000,30.180000
0.050,0.038000,-0.632000,0.689000,-12.412000,11.947000,-4.550000,30.080000
0.056,0.029000,-0.649000,0.697000,-8.603000,8.725000,-5.618000,30.130000
0.069,0.050000,-0.622000,0.701000,-8.099000,7.290000,-4.878000,30.080000
0.076,0.063000,-0.655000,0.700000,-5.931000,7.298000,-4.366000,30.180000
0.090,0.059000,-0.625000,0.696000,-5.031000,8.511000,-2.962000,30.080000
0.097,0.040000,-0.647000,0.695000,-4.389000,8.237000,-2.863000,30.220000
0.108,0.021000,-0.655000,0.718000,-1.664000,6.168000,-2.336000,30.180000
0.115,0.018000,-0.658000,0.771000,-0.137000,5.603000,-2.359000,30.180000
0.127,0.009000,-0.696000,0.801000,0.588000,7.710000,-2.015000,30.040000
0.139,-0.003000,-0.719000,0.862000,3.015000,12.382000,-5.191000,30.130000
0.146,-0.020000,-0.694000,0.896000,2.802000,19.656000,-11.931000,30.180000
0.158,-0.048000,-0.657000,0.898000,-0.672000,21.580000,-19.397000,30.080000
0.165,-0.110000,-0.630000,0.890000,-7.573000,16.641000,-19.725000,30.130000
0.177,-0.135000,-0.636000,0.854000,-14.023000,5.221000,-15.115000,30.080000
0.189,-0.097000,-0.616000,0.808000,-22.046000,-4.130000,-9.763000,30.080000
0.197,-0.025000,-0.628000,0.762000,-27.328000,-7.740000,-4.656000,30.130000
0.209,0.005000,-0.633000,0.682000,-29.702000,-5.176000,-2.122000,30.220000
0.215,0.055000,-0.658000,0.625000,-25.718000,2.466000,-3.382000,30.180000
0.227,0.107000,-0.656000,0.578000,-18.351000,12.824000,-10.924000,30.180000
0.239,0.122000,-0.648000,0.566000,-8.382000,26.672000,-17.702000,30.180000
0.247,0.055000,-0.616000,0.604000,-0.435000,31.137000,-23.229000,30.130000
0.258,-0.042000,-0.550000,0.640000,2.351000,21.756000,-21.450000,30.080000
0.265,-0.062000,-0.543000,0.611000,-0.359000,4.992000,-17.634000,30.180000
0.277,0.058000,-0.592000,0.595000,3.122000,-5.313000,-15.664000,30.130000
0.290,0.174000,-0.602000,0.566000,8.527000,-3.260000,-15.405000,30.130000
0.297,0.203000,-0.642000,0.531000,15.656000,0.031000,-10.954000,30.180000
0.309,0.179000,-0.643000,0.520000,22.481000,-0.168000,-4.641000,30.130000
0.316,0.171000,-0.637000,0.522000,28.481000,-1.786000,1.725000,30.130000
0.328,0.144000,-0.667000,0.567000,37.542000,-4.672000,4.214000,30.180000
0.338,0.098000,-0.614000,0.637000,44.725000,-7.305000,4.733000,30.080000
0.347,0.070000,-0.568000,0.685000,47.160000,-12.458000,5.443000,30.220000
0.360,0.041000,-0.603000,0.678000,48.611000,-22.313000,9.595000,30.130000
0.366,0.045000,-0.576000,0.670000,49.656000,-33.656000,14.359000,30.180000
0.379,0.110000,-0.600000,0.675000,50.336000,-37.718000,17.649000,30.180000
0.387,0.172000,-0.561000,0.701000,45.947000,-34.183000,19.305000,30.180000
0.398,0.251000,-0.573000,0.758000,37.527000,-23.733000,21.756000,30.130000
0.404,0.267000,-0.592000,0.762000,27.481000,-13.290000,26.840000,30.180000
0.416,0.251000,-0.670000,0.722000,22.641000,-12.092000,37.649000,30.180000
0.429,0.219000,-0.687000,0.670000,22.221000,-18.901000,49.527000,30.220000
0.437,0.156000,-0.707000,0.649000,24.405000,-33.153000,62.634000,30.040000
0.449,0.119000,-0.687000,0.659000,30.763000,-48.687000,71.687000,30.180000
0.455,0.104000,-0.623000,0.698000,37.687000,-59.534000,75.672000,30.080000
0.467,0.106000,-0.569000,0.762000,44.603000,-61.298000,74.313000,30.130000
0.479,0.128000,-0.504000,0.812000,48.015000,-52.855000,68.916000,30.080000
0.487,0.106000,-0.479000,0.833000,49.573000,-39.504000,62.840000,30.180000
0.498,0.093000,-0.441000,0.832000,50.817000,-26.244000,58.061000,30.130000
0.506,0.059000,-0.440000,0.783000,51.313000,-16.679000,52.687000,30.130000
0.517,0.027000,-0.445000,0.713000,54.885000,-12.756000,49.160000,30.180000
0.529,-0.010000,-0.428000,0.644000,58.504000,-14.641000,46.595000,30.080000
0.537,-0.057000,-0.440000,0.631000,62.458000,-24.191000,43.107000,30.180000
0.548,-0.053000,-0.452000,0.614000,69.985000,-31.122000,35.710000,30.040000
0.555,-0.007000,-0.490000,0.628000,78.740000,-34.756000,27.153000,30.180000
0.567,0.048000,-0.503000,0.662000,94.092000,-30.947000,19.160000,30.080000
0.579,0.103000,-0.432000,0.693000,106.901000,-20.466000,10.634000,30.130000
0.588,0.117000,-0.367000,0.721000,111.504000,-11.504000,2.542000,30.180000
0.599,0.092000,-0.344000,0.750000,111.718000,-10.756000,0.473000,30.180000
0.605,0.058000,-0.321000,0.729000,107.954000,-18.229000,4.191000,30.130000
0.617,0.066000,-0.294000,0.705000,99.473000,-32.878000,12.779000,30.130000
0.629,0.124000,-0.295000,0.648000,87.420000,-42.992000,25.603000,30.180000
0.638,0.229000,-0.354000,0.558000,79.557000,-42.687000,36.420000,30.180000
0.648,0.312000,-0.452000,0.546000,88.160000,-29.244000,42.168000,30.130000
0.655,0.335000,-0.454000,0.556000,108.450000,-8.626000,42.084000,30.130000
0.667,0.238000,-0.398000,0.605000,126.420000,7.779000,38.802000,30.180000
0.679,0.131000,-0.266000,0.721000,136.634000,13.687000,34.870000,30.080000
0.688,0.050000,-0.079000,0.867000,132.985000,9.489000,33.000000,30.130000
0.699,0.035000,0.010000,0.941000,119.069000,4.817000,32.649000,30.080000
0.705,0.051000,-0.010000,0.953000,102.695000,2.221000,36.038000,30.180000
0.718,0.092000,-0.101000,0.870000,91.183000,3.809000,42.840000,30.130000
0.724,0.124000,-0.212000,0.807000,91.901000,10.046000,48.992000,30.220000
0.737,0.093000,-0.242000,0.741000,102.115000,17.618000,52.580000,30.180000
0.749,-0.013000,-0.256000,0.745000,119.863000,17.359000,52.145000,30.180000
0.756,-0.116000,-0.129000,0.783000,133.779000,10.763000,45.763000,30.040000
0.769,-0.195000,0.089000,0.894000,127.405000,-11.336000,36.641000,30.180000
0.775,-0.188000,0.151000,0.950000,108.366000,-28.405000,30.489000,30.180000
0.788,-0.076000,0.079000,0.900000,93.779000,-39.656000,25.252000,30.130000
0.799,0.118000,-0.042000,0.868000,95.168000,-32.145000,20.870000,30.040000
0.806,0.243000,-0.061000,0.882000,107.557000,-9.214000,16.649000,30.180000
0.818,0.279000,-0.017000,0.909000,120.221000,22.947000,11.282000,30.180000
0.825,0.252000,-0.004000,0.895000,129.840000,57.336000,5.198000,30.080000
0.838,0.041000,0.086000,0.923000,138.573000,67.603000,2.908000,30.130000
0.850,-0.189000,0.207000,1.018000,132.840000,46.550000,11.321000,30.080000
0.856,-0.348000,0.353000,1.091000,113.084000,0.420000,17.527000,30.080000
0.868,-0.305000,0.359000,1.176000,90.458000,-51.244000,24.237000,30.130000
0.875,-0.085000,0.326000,1.178000,77.374000,-79.008000,24.809000,30.130000
0.887,0.198000,0.270000,1.182000,70.885000,-73.122000,22.122000,30.080000
0.899,0.422000,0.222000,1.230000,71.115000,-35.237000,16.198000,30.130000
0.907,0.510000,0.260000,1.244000,75.527000,19.748000,8.924000,30.130000
0.919,0.414000,0.273000,1.198000,72.450000,70.099000,3.466000,30.080000
0.926,0.100000,0.238000,1.117000,65.229000,80.046000,10.573000,30.080000
0.939,-0.208000,0.273000,1.002000,54.122000,46.160000,26.763000,30.130000
0.949,-0.268000,0.235000,0.978000,36.298000,-7.885000,42.992000,30.130000
0.958,-0.091000,0.251000,0.946000,23.397000,-37.076000,52.573000,30.180000
0.964,0.139000,0.114000,0.888000,28.496000,-35.817000,50.779000,30.180000
0.977,0.286000,0.029000,0.872000,48.496000,-6.084000,39.176000,30.080000
0.989,0.289000,0.081000,0.921000,69.328000,30.282000,26.137000,30.130000
0.996,0.162000,0.119000,0.940000,82.420000,57.122000,16.656000,30.080000
1.009,-0.016000,0.164000,0.913000,90.046000,62.366000,10.878000,30.080000
1.015,-0.217000,0.188000,0.848000,93.321000,41.031000,11.863000,30.220000
1.027,-0.308000,0.319000,0.858000,87.466000,-2.160000,14.412000,30.130000
1.039,-0.232000,0.417000,0.900000,67.916000,-41.344000,17.756000,30.080000
1.047,-0.020000,0.388000,0.898000,54.725000,-57.687000,15.832000,30.180000
1.059,0.177000,0.338000,0.909000,54.885000,-50.656000,15.267000,30.130000
1.066,0.309000,0.293000,0.905000,63.710000,-26.924000,12.901000,30.080000
1.078,0.323000,0.269000,0.969000,76.985000,4.130000,7.206000,30.180000
1.088,0.254000,0.375000,0.994000,85.832000,32.130000,2.893000,30.130000
1.098,0.031000,0.419000,0.963000,81.748000,39.282000,4.237000,30.130000
1.106,-0.158000,0.386000,0.865000,74.382000,18.198000,11.244000,30.080000
1.117,-0.193000,0.367000,0.760000,68.176000,-13.786000,15.649000,30.180000
1.129,-0.141000,0.440000,0.792000,57.198000,-48.542000,20.542000,30.180000
1.138,0.021000,0.522000,0.893000,43.176000,-61.664000,26.198000,30.130000
1.148,0.226000,0.421000,0.930000,42.092000,-48.000000,23.565000,30.180000
1.156,0.377000,0.370000,1.011000,56.122000,-11.702000,15.252000,30.080000
1.167,0.427000,0.469000,1.048000,71.229000,36.718000,5.756000,30.220000
1.174,0.177000,0.498000,1.060000,72.641000,62.084000,1.687000,30.130000
1.188,-0.259000,0.562000,1.041000,66.611000,27.344000,11.939000,30.180000
1.199,-0.373000,0.506000,0.982000,57.702000,-40.740000,19.359000,30.080000
1.206,-0.082000,0.383000,0.878000,60.023000,-84.641000,8.924000,30.130000
1.218,0.336000,0.321000,0.826000,80.527000,-76.786000,-5.954000,30.130000
1.225,0.537000,0.352000,0.802000,100.122000,-33.504000,-19.565000,30.180000
1.237,0.457000,0.422000,0.809000,108.382000,6.023000,-25.183000,30.040000
1.249,0.292000,0.481000,0.851000,104.130000,22.069000,-14.916000,30.130000
1.256,0.186000,0.546000,0.870000,94.046000,24.603000,-2.015000,30.080000
1.268,0.159000,0.591000,0.881000,81.267000,25.160000,8.672000,29.990000
1.275,0.090000,0.630000,0.897000,67.603000,22.420000,15.870000,30.080000
1.289,0.031000,0.651000,0.878000,53.573000,17.008000,20.015000,30.040000
1.295,0.044000,0.602000,0.819000,43.305000,8.267000,21.863000,30.080000
1.308,0.101000,0.574000,0.781000,41.718000,5.939000,23.427000,30.080000
1.314,0.121000,0.559000,0.756000,44.145000,8.855000,25.817000,30.130000
1.327,0.109000,0.578000,0.761000,45.779000,12.985000,28.595000,30.040000
1.339,0.068000,0.591000,0.734000,42.817000,14.985000,31.328000,30.180000
1.347,0.017000,0.556000,0.677000,38.710000,11.992000,33.282000,30.180000
1.359,-0.021000,0.558000,0.644000,37.427000,6.802000,32.870000,30.130000
1.365,-0.029000,0.552000,0.619000,37.992000,-0.405000,30.069000,30.080000
1.378,-0.006000,0.584000,0.649000,39.611000,-8.282000,24.847000,30.080000
1.384,0.015000,0.631000,0.685000,42.893000,-16.992000,21.237000,30.130000
1.398,0.053000,0.648000,0.680000,40.389000,-23.260000,19.221000,30.040000
1.409,0.110000,0.619000,0.635000,36.786000,-25.710000,20.786000,30.180000
1.416,0.159000,0.594000,0.565000,36.733000,-26.145000,26.115000,30.080000
1.428,0.166000,0.579000,0.542000,36.763000,-26.244000,30.634000,30.180000
1.437,0.148000,0.619000,0.651000,40.527000,-27.916000,29.359000,30.040000
1.447,0.080000,0.749000,0.772000,43.061000,-34.656000,23.305000,30.080000
1.453,0.092000,0.815000,0.863000,35.992000,-46.847000,15.832000,30.080000
1.466,0.166000,0.823000,0.880000,24.435000,-57.053000,12.206000,30.130000
1.479,0.276000,0.743000,0.808000,17.924000,-59.221000,14.969000,30.130000
1.488,0.322000,0.675000,0.698000,13.374000,-54.008000,21.359000,29.990000
1.498,0.328000,0.585000,0.630000,16.344000,-46.366000,27.168000,30.080000
1.506,0.272000,0.596000,0.686000,27.725000,-40.588000,28.107000,30.130000
1.517,0.188000,0.666000,0.772000,33.557000,-39.565000,23.595000,30.130000
1.529,0.146000,0.760000,0.874000,35.290000,-43.473000,16.145000,30.080000
1.537,0.137000,0.802000,0.900000,32.115000,-46.473000,8.916000,30.130000
1.549,0.175000,0.778000,0.883000,28.168000,-45.916000,3.237000,30.130000
1.556,0.177000,0.765000,0.803000,23.641000,-44.893000,3.389000,30.180000
1.568,0.143000,0.689000,0.704000,18.344000,-49.305000,5.015000,30.180000
1.575,0.176000,0.613000,0.616000,19.718000,-52.672000,-0.160000,30.080000
1.588,0.221000,0.566000,0.571000,27.221000,-51.893000,-7.282000,30.130000
1.600,0.290000,0.579000,0.583000,39.855000,-45.321000,-14.763000,30.080000
1.607,0.328000,0.635000,0.605000,49.298000,-37.099000,-18.786000,30.080000
1.619,0.245000,0.665000,0.585000,51.748000,-38.061000,-14.947000,30.040000
1.625,0.180000,0.658000,0.517000,50.305000,-49.840000,-6.336000,30.130000
1.639,0.154000,0.613000,0.445000,49.534000,-66.282000,-0.145000,30.080000
1.645,0.171000,0.568000,0.410000,59.855000,-75.740000,-1.359000,29.990000
1.657,0.231000,0.543000,0.466000,79.366000,-70.244000,-16.313000,30.040000
1.669,0.279000,0.630000,0.560000,99.275000,-52.107000,-42.336000,30.130000
1.675,0.272000,0.782000,0.648000,111.809000,-34.954000,-62.603000,30.080000
1.689,0.265000,0.903000,0.684000,110.992000,-25.374000,-67.931000,30.080000
1.695,0.260000,0.965000,0.641000,96.924000,-22.802000,-63.275000,30.040000
1.708,0.210000,0.867000,0.563000,84.382000,-30.473000,-50.725000,30.080000
1.719,0.137000,0.816000,0.501000,79.695000,-48.870000,-40.458000,30.080000
1.726,0.103000,0.872000,0.552000,77.740000,-70.420000,-39.168000,30.180000
1.739,0.203000,0.952000,0.650000,70.443000,-78.580000,-44.191000,30.040000
1.746,0.365000,0.976000,0.675000,62.824000,-73.443000,-46.450000,30.080000
1.757,0.485000,0.941000,0.655000,57.023000,-57.626000,-44.359000,29.990000
1.769,0.538000,0.920000,0.616000,54.405000,-37.748000,-35.634000,30.040000
1.776,0.539000,0.940000,0.571000,48.977000,-16.565000,-26.305000,30.040000
1.789,0.371000,0.981000,0.624000,40.374000,-13.168000,-17.672000,30.180000
1.795,0.230000,1.056000,0.704000,29.366000,-25.618000,-7.634000,30.080000
1.807,0.197000,1.038000,0.726000,13.023000,-42.405000,-1.351000,30.130000
1.820,0.298000,0.958000,0.690000,5.183000,-48.069000,3.084000,30.130000
1.826,0.413000,0.943000,0.599000,-1.802000,-34.267000,13.397000,30.080000
1.839,0.384000,0.859000,0.458000,-9.420000,-18.008000,22.298000,30.180000
1.848,0.328000,0.806000,0.353000,-10.603000,-2.977000,20.916000,30.040000
1.858,0.210000,0.798000,0.274000,-4.115000,1.878000,14.069000,30.080000
1.865,0.110000,0.757000,0.246000,9.534000,-6.863000,1.084000,30.080000
1.877,0.085000,0.792000,0.229000,19.931000,-21.992000,-10.221000,30.180000
1.889,0.100000,0.763000,0.243000,27.130000,-41.611000,-19.748000,30.130000
1.898,0.234000,0.806000,0.243000,34.099000,-51.221000,-26.137000,30.180000
1.909,0.359000,0.780000,0.246000,41.763000,-47.977000,-29.023000,30.080000
1.915,0.436000,0.824000,0.233000,48.092000,-35.260000,-29.924000,30.040000
1.927,0.419000,0.845000,0.254000,52.557000,-22.779000,-29.443000,30.130000
1.934,0.385000,0.975000,0.343000,50.702000,-16.061000,-29.328000,30.180000
1.947,0.305000,1.036000,0.412000,37.771000,-17.344000,-26.947000,30.080000
1.959,0.277000,0.976000,0.462000,29.290000,-29.847000,-25.466000,30.220000
1.965,0.315000,0.999000,0.489000,23.084000,-38.763000,-21.748000,30.040000
1.978,0.374000,0.955000,0.518000,17.603000,-40.504000,-17.107000,30.180000
1.984,0.442000,0.980000,0.542000,17.038000,-31.031000,-14.832000,30.180000
1.998,0.448000,1.006000,0.527000,11.412000,-12.366000,-12.450000,30.130000
2.010,0.367000,0.979000,0.479000,4.924000,5.183000,-13.542000,30.130000
2.016,0.337000,0.962000,0.389000,0.634000,18.412000,-18.504000,29.990000
2.029,0.255000,0.900000,0.317000,-1.901000,26.000000,-23.092000,30.080000
2.041,0.167000,0.815000,0.302000,6.115000,24.580000,-29.420000,30.040000
2.048,0.112000,0.824000,0.303000,18.137000,15.740000,-38.718000,30.040000
2.055,0.074000,0.847000,0.343000,27.618000,-1.641000,-44.649000,30.080000
2.067,0.092000,0.926000,0.405000,28.939000,-20.084000,-41.954000,30.080000
2.079,0.132000,0.905000,0.403000,23.771000,-34.710000,-35.893000,30.130000
2.088,0.253000,0.896000,0.371000,21.588000,-38.802000,-34.779000,30.180000
2.099,0.337000,0.914000,0.319000,18.191000,-29.893000,-31.237000,30.080000
2.106,0.338000,0.824000,0.263000,17.634000,-19.412000,-26.725000,30.040000
2.117,0.320000,0.827000,0.233000,23.519000,-12.504000,-25.336000,30.040000
2.129,0.280000,0.832000,0.236000,31.298000,-10.679000,-26.595000,30.080000
2.138,0.227000,0.848000,0.291000,37.366000,-16.702000,-27.351000,30.080000
2.148,0.233000,0.905000,0.341000,38.702000,-23.733000,-28.511000,30.040000
2.156,0.246000,0.949000,0.381000,36.191000,-29.031000,-23.542000,30.040000
2.167,0.285000,0.947000,0.370000,30.672000,-28.237000,-17.237000,30.080000
2.179,0.311000,0.989000,0.307000,19.817000,-19.260000,-7.099000,30.080000
2.187,0.291000,0.913000,0.236000,14.626000,-9.885000,0.290000,30.080000
2.199,0.240000,0.883000,0.181000,20.374000,0.687000,-0.443000,30.040000
2.207,0.143000,0.885000,0.195000,31.313000,3.046000,-5.382000,30.080000
2.218,0.099000,0.916000,0.234000,42.382000,-0.939000,-15.855000,30.080000
2.225,0.098000,1.019000,0.257000,44.099000,-4.733000,-21.359000,30.130000
2.239,0.092000,0.977000,0.242000,38.740000,-11.008000,-21.122000,30.080000
2.250,0.159000,0.994000,0.216000,38.008000,-10.672000,-22.565000,30.080000
2.257,0.192000,0.990000,0.158000,33.397000,-5.092000,-21.771000,30.040000
2.269,0.242000,0.916000,0.124000,38.656000,4.802000,-25.618000,30.130000
2.275,0.281000,0.946000,0.094000,49.779000,19.511000,-32.008000,30.080000
2.289,0.137000,0.926000,0.115000,55.947000,15.718000,-31.389000,30.180000
2.295,0.052000,0.957000,0.148000,65.046000,2.924000,-33.366000,30.130000
2.307,-0.009000,1.086000,0.137000,55.985000,-17.305000,-29.817000,30.130000
2.319,0.031000,0.986000,0.121000,51.366000,-37.412000,-28.725000,30.180000
2.326,0.167000,1.024000,0.100000,52.634000,-39.450000,-32.687000,30.080000
2.339,0.233000,1.017000,0.083000,50.305000,-33.275000,-33.809000,29.990000
2.345,0.258000,0.950000,0.124000,58.840000,-24.382000,-36.176000,30.130000
2.357,0.182000,0.983000,0.197000,69.191000,-21.244000,-37.496000,30.080000
2.369,0.102000,1.054000,0.271000,70.015000,-27.687000,-35.786000,30.080000
2.376,0.096000,1.146000,0.292000,60.229000,-35.779000,-32.160000,30.130000
2.389,0.116000,1.149000,0.237000,37.321000,-43.595000,-23.000000,30.180000
2.395,0.235000,1.053000,0.165000,27.443000,-38.885000,-23.092000,30.180000
2.408,0.292000,1.005000,0.097000,24.977000,-24.344000,-23.496000,30.130000
2.419,0.282000,0.926000,0.107000,31.763000,-12.634000,-22.977000,30.130000
2.426,0.220000,0.920000,0.141000,40.634000,-8.763000,-21.282000,30.080000
2.439,0.153000,0.989000,0.195000,44.130000,-12.443000,-14.267000,30.080000
2.446,0.134000,1.059000,0.200000,32.000000,-19.359000,-8.382000,30.130000
2.458,0.219000,1.032000,0.183000,23.107000,-17.237000,-9.298000,30.130000
2.464,0.258000,1.018000,0.140000,16.160000,-11.122000,-9.878000,30.080000
2.477,0.282000,0.933000,0.094000,16.641000,-2.901000,-10.817000,30.080000
2.489,0.284000,0.928000,0.117000,22.939000,4.115000,-10.733000,30.130000
2.498,0.272000,0.981000,0.220000,27.160000,6.603000,-8.618000,30.130000
2.509,0.214000,1.127000,0.296000,18.053000,6.901000,-2.779000,30.080000
2.516,0.181000,1.114000,0.309000,-0.802000,2.321000,7.885000,30.130000
2.528,0.210000,1.089000,0.257000,-14.802000,2.053000,12.267000,30.040000
2.537,0.223000,1.031000,0.185000,-24.458000,3.321000,15.000000,30.080000
2.548,0.256000,0.965000,0.137000,-24.878000,7.038000,15.718000,30.080000
2.556,0.261000,0.935000,0.103000,-18.718000,11.290000,17.878000,30.130000
2.567,0.239000,0.984000,0.102000,-12.748000,15.336000,25.840000,30.130000
2.579,0.176000,1.024000,0.033000,-18.626000,16.672000,35.954000,30.180000
2.588,0.134000,0.970000,-0.006000,-20.740000,18.275000,35.939000,30.080000
2.598,0.115000,0.927000,0.001000,-12.939000,17.435000,27.252000,30.130000
2.606,0.090000,0.930000,0.039000,-3.244000,15.260000,13.771000,30.220000
2.618,0.078000,0.909000,0.099000,6.695000,9.718000,2.481000,30.080000
2.625,0.112000,0.944000,0.215000,12.985000,4.473000,-5.260000,30.080000
2.637,0.206000,1.059000,0.305000,11.053000,5.863000,-6.931000,30.130000
2.649,0.255000,1.121000,0.314000,-6.076000,10.763000,3.183000,30.040000
2.657,0.338000,1.070000,0.276000,-21.725000,24.382000,11.237000,30.080000
2.669,0.384000,1.023000,0.211000,-29.122000,43.809000,16.435000,30.130000
2.675,0.331000,0.955000,0.212000,-28.649000,57.115000,20.252000,30.130000
2.689,0.219000,0.923000,0.268000,-21.282000,56.573000,16.710000,30.080000
2.695,0.166000,1.038000,0.358000,-21.061000,45.237000,10.588000,30.180000
2.707,0.190000,1.091000,0.437000,-27.214000,33.344000,10.573000,30.130000
2.719,0.277000,1.250000,0.405000,-43.634000,28.321000,24.168000,30.130000
2.726,0.321000,1.211000,0.289000,-76.481000,29.038000,44.786000,30.080000
2.739,0.334000,1.046000,0.154000,-87.305000,34.779000,53.389000,30.080000
2.748,0.260000,0.969000,0.075000,-82.008000,35.550000,53.634000,30.040000
2.758,0.174000,0.887000,0.071000,-69.511000,26.748000,46.443000,30.130000
2.764,0.159000,0.919000,0.147000,-53.924000,14.824000,39.763000,30.080000
2.777,0.209000,0.988000,0.255000,-46.611000,7.763000,36.458000,30.080000
2.790,0.230000,1.034000,0.355000,-43.725000,6.191000,38.794000,30.040000
2.797,0.188000,1.131000,0.431000,-49.443000,5.710000,42.809000,30.040000
2.809,0.148000,1.161000,0.474000,-63.443000,4.183000,44.763000,30.080000
2.815,0.151000,1.166000,0.465000,-78.496000,5.779000,41.221000,30.040000
2.828,0.218000,1.178000,0.405000,-92.412000,12.328000,37.771000,30.130000
2.834,0.257000,1.045000,0.347000,-100.206000,19.275000,37.550000,30.180000
2.848,0.235000,0.999000,0.322000,-97.634000,26.282000,42.374000,30.080000
2.859,0.169000,0.948000,0.317000,-94.244000,25.901000,45.122000,30.220000
2.866,0.092000,0.959000,0.357000,-87.969000,20.351000,43.458000,30.130000
2.878,0.037000,1.009000,0.417000,-86.160000,11.328000,41.275000,30.080000
2.888,0.100000,1.019000,0.425000,-92.916000,9.573000,33.084000,30.080000
2.899,0.191000,0.943000,0.432000,-91.473000,15.870000,22.779000,30.040000
2.905,0.281000,0.966000,0.456000,-91.664000,29.855000,14.038000,30.130000
2.917,0.306000,0.983000,0.482000,-96.725000,43.023000,7.168000,30.080000
2.929,0.229000,0.988000,0.515000,-101.382000,44.931000,5.466000,29.990000
2.937,0.139000,0.992000,0.527000,-109.420000,34.336000,11.679000,30.080000
2.948,0.053000,0.951000,0.523000,-117.977000,12.916000,16.496000,30.040000
2.957,0.129000,0.932000,0.539000,-118.031000,-4.763000,13.992000,30.180000
2.967,0.278000,0.896000,0.497000,-117.672000,-3.802000,1.229000,30.180000
2.979,0.384000,0.808000,0.532000,-107.603000,6.168000,-13.038000,30.130000
2.987,0.420000,0.828000,0.596000,-94.427000,18.809000,-23.290000,30.040000
2.998,0.341000,0.845000,0.633000,-91.481000,21.718000,-24.969000,30.080000
3.005,0.264000,0.839000,0.686000,-94.023000,10.397000,-18.282000,30.040000
3.017,0.204000,0.855000,0.729000,-100.649000,-12.336000,-8.450000,30.130000
3.029,0.260000,0.900000,0.802000,-103.183000,-29.282000,3.710000,30.080000
3.037,0.346000,0.970000,0.826000,-112.802000,-28.435000,22.260000,30.080000
3.048,0.372000,0.954000,0.833000,-124.176000,-15.527000,40.191000,30.130000
3.056,0.335000,0.985000,0.785000,-137.771000,6.069000,46.672000,30.130000
3.067,0.246000,0.921000,0.720000,-146.885000,24.679000,38.947000,30.080000
3.079,0.136000,0.863000,0.637000,-146.840000,30.985000,25.336000,30.080000
3.087,0.057000,0.810000,0.560000,-137.282000,25.282000,8.069000,30.080000
3.098,0.036000,0.791000,0.516000,-125.344000,11.573000,-9.672000,30.130000
3.106,0.141000,0.818000,0.505000,-114.649000,3.206000,-18.389000,30.180000
3.117,0.216000,0.787000,0.474000,-112.038000,-1.870000,-18.748000,30.270000
3.130,0.280000,0.750000,0.512000,-109.817000,-0.763000,-13.405000,30.040000
3.137,0.337000,0.732000,0.537000,-105.069000,10.511000,-4.069000,30.040000
3.148,0.306000,0.677000,0.531000,-102.473000,21.679000,8.763000,30.080000
3.156,0.242000,0.643000,0.547000,-97.939000,29.176000,16.863000,30.040000
3.168,0.179000,0.696000,0.551000,-99.656000,34.374000,17.534000,30.040000
3.174,0.097000,0.696000,0.587000,-102.664000,29.046000,14.740000,30.080000
3.187,0.101000,0.650000,0.598000,-99.443000,23.260000,8.221000,30.080000
3.200,0.142000,0.588000,0.602000,-91.626000,18.595000,2.458000,30.040000
3.207,0.194000,0.556000,0.601000,-84.084000,20.260000,2.458000,30.130000
3.218,0.239000,0.569000,0.611000,-79.664000,27.870000,6.221000,30.080000
3.225,0.229000,0.547000,0.670000,-76.595000,36.809000,9.328000,30.080000
3.239,0.214000,0.555000,0.735000,-71.130000,50.130000,8.290000,30.080000
3.248,0.192000,0.586000,0.789000,-70.366000,61.962000,4.557000,30.130000
3.258,0.054000,0.607000,0.857000,-69.718000,57.962000,0.496000,30.080000
3.270,-0.061000,0.668000,0.882000,-69.542000,36.435000,0.305000,30.080000
3.276,-0.053000,0.634000,0.860000,-73.504000,7.832000,-1.153000,30.040000
3.289,0.026000,0.555000,0.823000,-75.145000,-13.725000,-3.053000,30.040000
3.296,0.136000,0.478000,0.787000,-70.794000,-19.015000,-4.198000,30.080000
3.309,0.177000,0.427000,0.762000,-65.985000,-15.939000,-5.221000,29.990000
3.314,0.154000,0.451000,0.812000,-61.374000,-10.107000,-6.466000,30.130000
3.327,0.170000,0.467000,0.831000,-62.084000,-2.183000,-8.893000,30.080000
3.339,0.194000,0.467000,0.865000,-66.405000,7.275000,-14.969000,29.990000
3.348,0.194000,0.451000,0.894000,-67.672000,15.649000,-20.076000,30.040000
3.359,0.159000,0.415000,0.877000,-68.321000,16.870000,-22.466000,30.040000
3.365,0.145000,0.365000,0.848000,-66.710000,12.656000,-22.832000,30.180000
3.377,0.175000,0.344000,0.861000,-60.901000,11.450000,-21.916000,30.180000
3.389,0.244000,0.381000,0.840000,-61.603000,19.153000,-19.504000,30.080000
3.397,0.244000,0.319000,0.794000,-66.382000,26.947000,-17.206000,30.040000
3.408,0.170000,0.269000,0.748000,-68.130000,25.885000,-18.344000,30.080000
3.415,0.030000,0.246000,0.790000,-64.794000,6.466000,-18.298000,30.080000
3.427,0.076000,0.303000,0.815000,-56.931000,-13.565000,-18.153000,30.130000
3.439,0.142000,0.315000,0.831000,-56.290000,-26.267000,-15.687000,30.040000
3.447,0.144000,0.299000,0.902000,-54.954000,-34.237000,-8.672000,30.080000
3.459,0.247000,0.338000,0.915000,-53.962000,-27.412000,-6.359000,30.080000
3.465,0.302000,0.288000,0.876000,-62.099000,-9.267000,-7.649000,30.040000
3.478,0.291000,0.238000,0.895000,-60.992000,6.038000,-5.855000,30.040000
3.483,0.283000,0.257000,0.892000,-60.931000,21.435000,-7.473000,30.080000
3.498,0.217000,0.249000,0.871000,-65.710000,28.504000,-7.527000,30.080000
3.509,0.152000,0.237000,0.865000,-68.092000,26.260000,-1.176000,30.040000
3.516,0.134000,0.197000,0.825000,-68.977000,21.809000,4.763000,30.130000
3.528,0.095000,0.154000,0.796000,-68.420000,12.198000,5.924000,30.080000
3.537,0.094000,0.145000,0.777000,-62.344000,6.145000,5.359000,30.180000
3.549,0.109000,0.143000,0.797000,-59.557000,-0.489000,0.122000,30.040000
3.556,0.100000,0.187000,0.905000,-59.092000,-5.214000,-5.366000,30.130000
3.567,0.160000,0.247000,1.067000,-61.954000,-5.031000,-9.725000,30.080000
3.579,0.239000,0.285000,1.220000,-70.053000,7.344000,-10.069000,30.040000
3.587,0.304000,0.282000,1.242000,-81.550000,33.802000,-12.870000,30.040000
3.599,0.310000,0.247000,1.145000,-95.015000,59.008000,-15.557000,30.080000
3.607,0.237000,0.181000,0.938000,-102.008000,98.191000,-15.939000,30.080000
3.617,0.078000,0.037000,0.909000,-97.099000,106.489000,-20.084000,30.130000
3.629,-0.159000,0.005000,0.831000,-91.252000,95.771000,-30.489000,30.040000
3.637,-0.363000,-0.008000,0.822000,-85.420000,53.824000,-37.420000,30.080000
3.648,-0.370000,-0.042000,0.819000,-73.626000,1.962000,-40.099000,30.080000
3.660,-0.149000,-0.054000,0.806000,-62.794000,-36.069000,-38.565000,30.040000
3.666,0.090000,-0.050000,0.804000,-52.435000,-48.397000,-32.382000,30.040000
3.678,0.194000,-0.041000,0.847000,-45.557000,-45.008000,-26.260000,30.080000
3.685,0.237000,-0.009000,0.882000,-44.710000,-31.389000,-20.359000,30.180000
3.699,0.209000,0.033000,0.905000,-51.092000,-15.634000,-14.954000,30.080000
3.710,0.154000,-0.003000,0.948000,-52.321000,-5.176000,-12.679000,30.130000
3.716,0.196000,0.074000,0.933000,-52.817000,11.916000,-14.695000,30.080000
3.728,0.156000,0.038000,0.935000,-58.504000,24.519000,-17.420000,29.990000
3.735,0.035000,0.011000,0.919000,-57.099000,20.435000,-15.046000,30.130000
3.748,0.052000,-0.006000,0.857000,-55.733000,9.847000,-12.252000,30.040000
3.760,0.026000,-0.082000,0.841000,-54.191000,-5.000000,-6.405000,30.080000
3.766,-0.001000,-0.095000,0.904000,-43.969000,-21.244000,0.221000,29.990000
3.778,0.008000,0.001000,0.945000,-39.107000,-32.397000,-1.382000,29.940000
3.785,0.030000,0.001000,0.996000,-40.099000,-37.214000,-3.718000,30.040000
3.799,0.129000,0.015000,0.982000,-40.832000,-29.061000,-8.069000,30.180000
3.810,0.202000,-0.008000,0.938000,-46.702000,-12.336000,-11.221000,30.080000
3.816,0.200000,-0.074000,0.916000,-46.992000,3.000000,-11.885000,30.040000
3.828,0.155000,-0.078000,0.915000,-45.153000,10.924000,-11.351000,30.080000
3.835,0.073000,-0.088000,0.961000,-42.115000,10.153000,-12.870000,30.080000
3.848,0.002000,-0.083000,0.999000,-40.618000,0.305000,-13.313000,30.080000
3.859,0.047000,-0.076000,0.975000,-40.405000,-7.595000,-12.023000,30.040000
3.866,0.115000,-0.138000,0.951000,-40.580000,-9.885000,-9.939000,30.080000
3.878,0.214000,-0.096000,0.919000,-38.130000,-1.924000,-8.588000,30.080000
3.885,0.290000,-0.067000,0.874000,-44.550000,14.160000,-8.985000,30.040000
3.899,0.292000,-0.111000,0.878000,-49.725000,35.313000,-8.397000,30.130000
3.910,0.198000,-0.127000,0.854000,-49.954000,46.481000,-8.374000,29.990000
3.916,0.029000,-0.128000,0.889000,-50.397000,37.244000,-6.473000,30.080000
3.928,-0.061000,-0.137000,0.899000,-48.718000,14.603000,-1.595000,30.040000
3.935,-0.010000,-0.137000,0.851000,-48.076000,-3.817000,2.534000,30.040000
3.948,0.032000,-0.208000,0.812000,-48.206000,-15.603000,6.595000,29.990000
3.960,0.073000,-0.228000,0.784000,-42.969000,-15.847000,10.618000,30.080000
3.966,0.095000,-0.205000,0.766000,-40.679000,-8.817000,8.191000,30.130000
3.979,0.086000,-0.236000,0.780000,-38.672000,-0.229000,1.702000,30.040000
3.988,0.082000,-0.247000,0.816000,-32.947000,8.336000,-7.710000,29.990000
3.999,0.060000,-0.276000,0.835000,-25.634000,11.397000,-16.290000,30.080000
4.011,-0.022000,-0.271000,0.876000,-17.427000,1.634000,-19.794000,30.040000
4.016,-0.012000,-0.239000,0.875000,-12.931000,-12.847000,-17.107000,30.040000
4.028,0.014000,-0.236000,0.860000,-16.115000,-26.282000,-11.779000,30.080000
4.035,0.035000,-0.278000,0.832000,-18.504000,-35.786000,-4.481000,29.990000
4.048,0.049000,-0.263000,0.799000,-21.527000,-40.198000,1.618000,30.130000
4.060,0.052000,-0.270000,0.782000,-23.069000,-41.153000,7.374000,30.080000
4.066,0.120000,-0.251000,0.799000,-21.160000,-31.061000,5.939000,30.080000
4.078,0.171000,-0.218000,0.830000,-21.832000,-13.061000,-7.672000,30.040000
4.085,0.135000,-0.204000,0.903000,-18.580000,0.130000,-23.191000,30.040000
4.097,0.150000,-0.181000,0.948000,-15.771000,8.191000,-37.198000,30.080000
4.109,0.169000,-0.206000,0.946000,-19.870000,11.710000,-42.389000,29.990000
4.116,0.191000,-0.274000,0.913000,-19.389000,8.359000,-35.893000,30.130000
4.128,0.206000,-0.291000,0.869000,-20.038000,2.298000,-23.534000,30.040000
4.135,0.191000,-0.335000,0.814000,-21.595000,-5.595000,-10.550000,29.990000
4.148,0.128000,-0.343000,0.789000,-22.015000,-15.702000,-0.168000,30.080000
4.160,0.148000,-0.316000,0.826000,-18.740000,-20.725000,2.298000,30.080000
4.166,0.188000,-0.288000,0.848000,-16.206000,-18.427000,-2.298000,30.130000
4.178,0.212000,-0.274000,0.900000,-15.038000,-13.939000,-8.458000,30.080000
4.185,0.262000,-0.261000,0.941000,-13.183000,-7.771000,-13.427000,30.080000
4.198,0.292000,-0.260000,0.952000,-14.397000,-0.779000,-13.481000,30.130000
4.210,0.278000,-0.271000,0.953000,-17.901000,2.344000,-7.313000,30.040000
4.216,0.278000,-0.264000,0.974000,-20.023000,3.053000,-1.313000,30.080000
4.228,0.218000,-0.231000,0.958000,-27.122000,2.000000,7.176000,29.990000
4.238,0.163000,-0.299000,0.928000,-32.298000,-6.237000,16.412000,30.040000
4.248,0.201000,-0.296000,0.905000,-34.443000,-8.802000,21.985000,29.940000
4.261,0.256000,-0.317000,0.854000,-37.763000,-0.931000,25.924000,29.990000
4.266,0.260000,-0.400000,0.800000,-32.626000,9.206000,25.672000,29.990000
4.278,0.211000,-0.390000,0.758000,-26.489000,17.389000,20.695000,29.940000
4.288,0.112000,-0.408000,0.777000,-21.344000,18.038000,14.977000,30.040000
4.300,0.062000,-0.365000,0.823000,-16.580000,11.733000,10.115000,30.080000
4.305,0.075000,-0.355000,0.863000,-15.504000,8.206000,5.870000,30.080000
4.317,0.082000,-0.338000,0.895000,-16.397000,4.389000,4.092000,30.040000
4.329,0.100000,-0.315000,0.893000,-20.023000,-1.336000,7.962000,29.990000
4.339,0.113000,-0.369000,0.872000,-25.382000,-7.176000,12.229000,30.080000
4.349,0.160000,-0.374000,0.864000,-24.084000,-7.733000,14.351000,30.040000
4.357,0.168000,-0.378000,0.867000,-24.481000,-6.214000,16.206000,29.940000
4.367,0.162000,-0.373000,0.892000,-22.832000,-4.427000,14.969000,30.080000
4.379,0.104000,-0.348000,0.909000,-23.710000,-6.053000,14.679000,29.890000
4.388,0.081000,-0.348000,0.948000,-26.069000,-12.145000,12.771000,30.130000
4.399,0.095000,-0.322000,0.969000,-28.412000,-17.061000,11.794000,30.040000
4.405,0.117000,-0.317000,0.970000,-34.573000,-22.282000,13.412000,29.990000
4.417,0.141000,-0.321000,0.926000,-43.809000,-29.328000,19.275000,30.080000
4.429,0.138000,-0.385000,0.917000,-49.649000,-40.916000,28.366000,30.040000
4.438,0.123000,-0.392000,0.926000,-56.458000,-55.252000,38.008000,30.040000
4.449,0.155000,-0.417000,0.941000,-62.649000,-65.321000,44.374000,30.080000
4.456,0.231000,-0.429000,1.024000,-66.115000,-65.290000,48.580000,30.080000
4.467,0.347000,-0.382000,1.114000,-72.267000,-47.511000,47.443000,30.080000
4.479,0.385000,-0.309000,1.134000,-83.977000,-21.092000,38.084000,30.040000
4.488,0.364000,-0.329000,1.084000,-94.802000,8.977000,26.855000,30.180000
4.499,0.279000,-0.417000,0.879000,-100.000000,35.954000,17.420000,29.990000
4.507,0.124000,-0.570000,0.646000,-98.786000,52.939000,10.122000,30.040000
4.517,-0.038000,-0.671000,0.454000,-86.885000,55.168000,0.962000,30.040000
4.529,-0.091000,-0.719000,0.331000,-66.863000,53.221000,-10.359000,30.080000
4.538,-0.165000,-0.696000,0.274000,-47.885000,43.015000,-18.916000,30.180000
4.548,-0.180000,-0.689000,0.235000,-27.626000,21.901000,-19.496000,30.040000
4.560,-0.155000,-0.647000,0.203000,-8.359000,-2.206000,-20.824000,30.080000
4.566,-0.087000,-0.589000,0.271000,4.634000,-25.397000,-23.481000,30.080000
4.579,0.037000,-0.531000,0.400000,15.794000,-38.443000,-28.992000,30.040000
4.588,0.207000,-0.558000,0.553000,28.817000,-35.084000,-30.359000,30.130000
4.598,0.375000,-0.499000,0.699000,39.046000,-13.221000,-32.053000,30.080000
4.611,0.400000,-0.396000,0.835000,39.725000,12.901000,-30.046000,30.080000
4.616,0.218000,-0.365000,0.899000,33.137000,18.916000,-24.145000,29.990000
4.629,0.023000,-0.437000,0.891000,23.351000,-0.618000,-8.443000,30.040000
4.640,0.118000,-0.470000,0.857000,19.107000,-16.687000,0.969000,30.180000
4.649,0.237000,-0.510000,0.871000,22.160000,-14.168000,-0.481000,30.080000
4.657,0.238000,-0.445000,0.933000,22.550000,-6.725000,-3.947000,30.130000
4.667,0.222000,-0.453000,0.983000,18.252000,-0.389000,-1.695000,30.040000
4.679,0.238000,-0.476000,1.000000,11.916000,7.015000,1.115000,30.080000
4.688,0.235000,-0.519000,0.963000,6.626000,15.542000,7.481000,29.990000
4.699,0.225000,-0.512000,0.911000,2.733000,22.511000,10.405000,30.040000
4.707,0.176000,-0.535000,0.866000,2.504000,26.237000,9.031000,30.040000
4.718,0.062000,-0.525000,0.829000,2.313000,16.122000,8.733000,30.080000
4.725,0.050000,-0.534000,0.795000,5.015000,-1.603000,7.924000,29.990000
4.740,0.180000,-0.584000,0.763000,12.214000,-8.473000,4.344000,30.130000
4.745,0.283000,-0.564000,0.773000,20.107000,0.168000,0.893000,30.130000
4.757,0.267000,-0.499000,0.800000,20.435000,14.481000,-0.588000,30.080000
4.769,0.176000,-0.494000,0.830000,22.649000,20.160000,-1.519000,30.080000
4.776,0.082000,-0.437000,0.821000,22.527000,15.977000,-3.351000,30.130000
4.789,0.044000,-0.444000,0.814000,19.275000,6.115000,-5.008000,30.080000
4.797,0.072000,-0.419000,0.784000,17.382000,-3.031000,-8.298000,30.080000
4.808,0.101000,-0.477000,0.758000,16.435000,-10.588000,-7.985000,30.130000
4.820,0.163000,-0.481000,0.732000,17.443000,-13.656000,-7.733000,30.130000
4.826,0.199000,-0.506000,0.743000,19.824000,-11.588000,-8.427000,29.990000
4.839,0.201000,-0.485000,0.788000,22.885000,-8.221000,-7.595000,30.080000
4.846,0.190000,-0.451000,0.842000,22.603000,-4.702000,-5.954000,30.040000
4.858,0.188000,-0.438000,0.905000,21.634000,-2.916000,-5.031000,30.130000
4.865,0.173000,-0.395000,0.906000,17.046000,-0.962000,-1.313000,30.180000
4.877,0.216000,-0.409000,0.922000,13.534000,4.145000,1.878000,30.080000
